{
  "resourceType" : "Bundle",
  "id" : "getrecommendations-a-return",
  "type" : "collection",
  "entry" : [{
    "fullUrl" : "urn:uuid:30551ce1-5a28-4356-b684-1e639094ad21",
    "resource" : {
      "resourceType" : "RequestGroup",
      "id" : "getrecommendations-a-return-group",
      "text" : {
        "status" : "generated",
        "div" : "<div xmlns=\"http://www.w3.org/1999/xhtml\"><a name=\"RequestGroup_getrecommendations-a-return-group\"> </a><p class=\"res-header-id\"><b>Generated Narrative: RequestGroup getrecommendations-a-return-group</b></p><a name=\"getrecommendations-a-return-group\"> </a><a name=\"hcgetrecommendations-a-return-group\"> </a><a name=\"getrecommendations-a-return-group-en-US\"> </a><p><b>status</b>: Active</p><p><b>intent</b>: Proposal</p><p><b>subject</b>: <a href=\"Patient-X.html\">Anonymous Patient Male, DoB: 1972-05-24</a></p><blockquote><p><b>action</b></p><p><b>selectionBehavior</b>: At Most One</p><h3>Actions</h3><table class=\"grid\"><tr><td style=\"display: none\">-</td><td><b>TextEquivalent</b></td><td><b>Resource</b></td></tr><tr><td style=\"display: none\">*</td><td>Generic Antibiotic advice</td><td><a href=\"Communication-ab-advice.html\">Communication: extension = 3 / 3; status = in-progress</a></td></tr><tr><td style=\"display: none\">*</td><td>Metronidazol Oraal</td><td><a href=\"MedicationRequest-metronidazol.html\">MedicationRequest: extension = 9 / 10; status = active; intent = proposal; medication[x] = </a></td></tr><tr><td style=\"display: none\">*</td><td>Fosfomycin (7/10), single 3g dose</td><td><code>30551ce1-5a28-4356-b684-1e639094ad24</code></td></tr><tr><td style=\"display: none\">*</td><td>Fluconazol Oraal</td><td><a href=\"MedicationRequest-fluconazol.html\">MedicationRequest: extension = 1 / 10; status = active; intent = proposal; medication[x] = </a></td></tr><tr><td style=\"display: none\">*</td><td>Miconazol lokaal</td><td><a href=\"MedicationRequest-miconazol.html\">MedicationRequest: extension = 1 / 10; status = active; intent = proposal; medication[x] = </a></td></tr></table></blockquote></div>"
      },
      "status" : "active",
      "intent" : "proposal",
      "subject" : {
        "reference" : "Patient/X"
      },
      "action" : [{
        "selectionBehavior" : "at-most-one",
        "action" : [{
          "textEquivalent" : "Generic Antibiotic advice",
          "resource" : {
            "reference" : "Communication/ab-advice"
          }
        },
        {
          "textEquivalent" : "Metronidazol Oraal",
          "resource" : {
            "reference" : "MedicationRequest/metronidazol"
          }
        },
        {
          "textEquivalent" : "Fosfomycin (7/10), single 3g dose",
          "resource" : {
            "reference" : "30551ce1-5a28-4356-b684-1e639094ad24"
          }
        },
        {
          "textEquivalent" : "Fluconazol Oraal",
          "resource" : {
            "reference" : "MedicationRequest/fluconazol"
          }
        },
        {
          "textEquivalent" : "Miconazol lokaal",
          "resource" : {
            "reference" : "MedicationRequest/miconazol"
          }
        }]
      }]
    }
  },
  {
    "fullUrl" : "urn:uuid:30551ce1-5a28-4356-b684-1e639094ad22",
    "resource" : {
      "resourceType" : "Communication",
      "id" : "ab-advice",
      "meta" : {
        "profile" : ["http://hl7.org/fhir/uv/cpg/StructureDefinition/cpg-medicationrequest"]
      },
      "text" : {
        "status" : "extensions",
        "div" : "<div xmlns=\"http://www.w3.org/1999/xhtml\"><a name=\"Communication_ab-advice\"> </a><p class=\"res-header-id\"><b>Generated Narrative: Communication ab-advice</b></p><a name=\"ab-advice\"> </a><a name=\"hcab-advice\"> </a><a name=\"ab-advice-en-US\"> </a><p><b>CPG Rating Extension</b>: 3/3</p><p><b>status</b>: In Progress</p><p><b>subject</b>: <a href=\"Patient-X.html\">Anonymous Patient Male, DoB: 1972-05-24</a></p><blockquote><p><b>payload</b></p><p><b>content</b>: Traitement antibiotique uniquemene en cas de symptômes dérangeants ou de risque accru de naissance prématurée...</p></blockquote><blockquote><p><b>payload</b></p><p><b>content</b>: Antibioticum behandeling etc... but in French</p></blockquote></div>"
      },
      "extension" : [{
        "url" : "http://hl7.org/fhir/uv/cpg/StructureDefinition/cpg-rating",
        "valueRatio" : {
          "numerator" : {
            "value" : 3
          },
          "denominator" : {
            "value" : 3
          }
        }
      }],
      "status" : "in-progress",
      "subject" : {
        "reference" : "Patient/X"
      },
      "payload" : [{
        "contentString" : "Traitement antibiotique uniquemene en cas de symptômes dérangeants ou de risque accru de naissance prématurée...",
        "_contentString" : {
          "extension" : [{
            "url" : "http://hl7.org/fhir/StructureDefinition/language",
            "valueCode" : "nl"
          }]
        }
      },
      {
        "contentString" : "Antibioticum behandeling etc... but in French",
        "_contentString" : {
          "extension" : [{
            "url" : "http://hl7.org/fhir/StructureDefinition/translation",
            "valueCode" : "fr"
          }]
        }
      }]
    }
  },
  {
    "fullUrl" : "urn:uuid:30551ce1-5a28-4356-b684-1e639094ac22",
    "resource" : {
      "resourceType" : "MedicationRequest",
      "id" : "metronidazol",
      "meta" : {
        "profile" : ["http://hl7.org/fhir/uv/cpg/StructureDefinition/cpg-medicationrequest"]
      },
      "text" : {
        "status" : "extensions",
        "div" : "<div xmlns=\"http://www.w3.org/1999/xhtml\"><a name=\"MedicationRequest_metronidazol\"> </a><p class=\"res-header-id\"><b>Generated Narrative: MedicationRequest metronidazol</b></p><a name=\"metronidazol\"> </a><a name=\"hcmetronidazol\"> </a><a name=\"metronidazol-en-US\"> </a><p><b>CPG Rating Extension</b>: 9/10</p><p><b>status</b>: Active</p><p><b>intent</b>: Proposal</p><p><b>medication</b>: <span title=\"Codes:\">Nitrofurantoin 2x 100mg x 5 days</span></p><p><b>subject</b>: <a href=\"Patient-X.html\">Anonymous Patient Male, DoB: 1972-05-24</a></p></div>"
      },
      "extension" : [{
        "url" : "http://hl7.org/fhir/uv/cpg/StructureDefinition/cpg-rating",
        "valueRatio" : {
          "numerator" : {
            "value" : 9
          },
          "denominator" : {
            "value" : 10
          }
        }
      }],
      "status" : "active",
      "intent" : "proposal",
      "medicationCodeableConcept" : {
        "text" : "Nitrofurantoin 2x 100mg x 5 days"
      },
      "subject" : {
        "reference" : "Patient/X"
      }
    }
  },
  {
    "fullUrl" : "urn:uuid:30551ce1-5a28-4356-b684-1e639094ad24",
    "resource" : {
      "resourceType" : "MedicationRequest",
      "id" : "clindamycin",
      "meta" : {
        "profile" : ["http://hl7.org/fhir/uv/cpg/StructureDefinition/cpg-medicationrequest"]
      },
      "text" : {
        "status" : "extensions",
        "div" : "<div xmlns=\"http://www.w3.org/1999/xhtml\"><a name=\"MedicationRequest_clindamycin\"> </a><p class=\"res-header-id\"><b>Generated Narrative: MedicationRequest clindamycin</b></p><a name=\"clindamycin\"> </a><a name=\"hcclindamycin\"> </a><a name=\"clindamycin-en-US\"> </a><p><b>CPG Rating Extension</b>: 3/10</p><p><b>status</b>: Active</p><p><b>intent</b>: Proposal</p><p><b>medication</b>: <span title=\"Codes:\">Fosfomycin, single 3g dose</span></p><p><b>subject</b>: <a href=\"Patient-X.html\">Anonymous Patient Male, DoB: 1972-05-24</a></p></div>"
      },
      "extension" : [{
        "url" : "http://hl7.org/fhir/uv/cpg/StructureDefinition/cpg-rating",
        "valueRatio" : {
          "numerator" : {
            "value" : 3
          },
          "denominator" : {
            "value" : 10
          }
        }
      }],
      "status" : "active",
      "intent" : "proposal",
      "medicationCodeableConcept" : {
        "text" : "Fosfomycin, single 3g dose"
      },
      "subject" : {
        "reference" : "Patient/X"
      }
    }
  },
  {
    "fullUrl" : "urn:uuid:30551ce1-5a28-4356-b684-1e639094ad26",
    "resource" : {
      "resourceType" : "MedicationRequest",
      "id" : "fluconazol",
      "meta" : {
        "profile" : ["http://hl7.org/fhir/uv/cpg/StructureDefinition/cpg-medicationrequest"]
      },
      "text" : {
        "status" : "extensions",
        "div" : "<div xmlns=\"http://www.w3.org/1999/xhtml\"><a name=\"MedicationRequest_fluconazol\"> </a><p class=\"res-header-id\"><b>Generated Narrative: MedicationRequest fluconazol</b></p><a name=\"fluconazol\"> </a><a name=\"hcfluconazol\"> </a><a name=\"fluconazol-en-US\"> </a><p><b>CPG Rating Extension</b>: 1/10</p><p><b>status</b>: Active</p><p><b>intent</b>: Proposal</p><p><b>medication</b>: <span title=\"Codes:\">Fluconazol</span></p><p><b>subject</b>: <a href=\"Patient-X.html\">Anonymous Patient Male, DoB: 1972-05-24</a></p></div>"
      },
      "extension" : [{
        "url" : "http://hl7.org/fhir/uv/cpg/StructureDefinition/cpg-rating",
        "valueRatio" : {
          "numerator" : {
            "value" : 1
          },
          "denominator" : {
            "value" : 10
          }
        }
      }],
      "status" : "active",
      "intent" : "proposal",
      "medicationCodeableConcept" : {
        "text" : "Fluconazol"
      },
      "subject" : {
        "reference" : "Patient/X"
      }
    }
  },
  {
    "fullUrl" : "urn:uuid:30551ce1-5a28-4356-b684-1e639094ad29",
    "resource" : {
      "resourceType" : "MedicationRequest",
      "id" : "miconazol",
      "meta" : {
        "profile" : ["http://hl7.org/fhir/uv/cpg/StructureDefinition/cpg-medicationrequest"]
      },
      "text" : {
        "status" : "extensions",
        "div" : "<div xmlns=\"http://www.w3.org/1999/xhtml\"><a name=\"MedicationRequest_miconazol\"> </a><p class=\"res-header-id\"><b>Generated Narrative: MedicationRequest miconazol</b></p><a name=\"miconazol\"> </a><a name=\"hcmiconazol\"> </a><a name=\"miconazol-en-US\"> </a><p><b>CPG Rating Extension</b>: 1/10</p><p><b>status</b>: Active</p><p><b>intent</b>: Proposal</p><p><b>medication</b>: <span title=\"Codes:\">Miconazol</span></p><p><b>subject</b>: <a href=\"Patient-X.html\">Anonymous Patient Male, DoB: 1972-05-24</a></p></div>"
      },
      "extension" : [{
        "url" : "http://hl7.org/fhir/uv/cpg/StructureDefinition/cpg-rating",
        "valueRatio" : {
          "numerator" : {
            "value" : 1
          },
          "denominator" : {
            "value" : 10
          }
        }
      }],
      "status" : "active",
      "intent" : "proposal",
      "medicationCodeableConcept" : {
        "text" : "Miconazol"
      },
      "subject" : {
        "reference" : "Patient/X"
      }
    }
  }]
}