{
  "resourceType" : "Bundle",
  "id" : "getdiagnoses-return",
  "type" : "collection",
  "entry" : [{
    "fullUrl" : "urn:uuid:30551ce1-5a28-4356-b684-1e639094ad08",
    "resource" : {
      "resourceType" : "RequestGroup",
      "id" : "getdiagnoses-return",
      "text" : {
        "status" : "generated",
        "div" : "<div xmlns=\"http://www.w3.org/1999/xhtml\"><a name=\"RequestGroup_getdiagnoses-return\"> </a><p class=\"res-header-id\"><b>Generated Narrative: RequestGroup getdiagnoses-return</b></p><a name=\"getdiagnoses-return\"> </a><a name=\"hcgetdiagnoses-return\"> </a><a name=\"getdiagnoses-return-en-US\"> </a><p><b>status</b>: Active</p><p><b>intent</b>: Proposal</p><p><b>subject</b>: <a href=\"Patient-X.html\">Anonymous Patient Male, DoB: 1972-05-24</a></p><blockquote><p><b>action</b></p><p><b>textEquivalent</b>: Potential diagnosis of Pulmonary Embolism</p><p><b>resource</b>: <a href=\"Task-propose-pulmonary-embolism.html\">Task Propose a diagnosis</a></p></blockquote><blockquote><p><b>action</b></p><p><b>textEquivalent</b>: Potential diagnosis of Acute Coronary Syndrome</p><p><b>resource</b>: <a href=\"Bundle-getdiagnoses-return.html#Task_propose-acute-coronary-syndrome\">Bundle: type = collection</a></p></blockquote><blockquote><p><b>action</b></p><p><b>textEquivalent</b>: Potential diagnosis of Pneumothorax</p><p><b>resource</b>: <a href=\"Bundle-getdiagnoses-return.html#Task_propose-pneumothorax\">Bundle: type = collection</a></p></blockquote></div>"
      },
      "status" : "active",
      "intent" : "proposal",
      "subject" : {
        "reference" : "Patient/X"
      },
      "action" : [{
        "textEquivalent" : "Potential diagnosis of Pulmonary Embolism",
        "resource" : {
          "reference" : "Task/propose-pulmonary-embolism"
        }
      },
      {
        "textEquivalent" : "Potential diagnosis of Acute Coronary Syndrome",
        "resource" : {
          "reference" : "Task/propose-acute-coronary-syndrome"
        }
      },
      {
        "textEquivalent" : "Potential diagnosis of Pneumothorax",
        "resource" : {
          "reference" : "Task/propose-pneumothorax"
        }
      }]
    }
  },
  {
    "fullUrl" : "urn:uuid:30551ce1-5a28-4356-b684-1e639094ad09",
    "resource" : {
      "resourceType" : "Task",
      "id" : "propose-pulmonary-embolism",
      "text" : {
        "status" : "generated",
        "div" : "<div xmlns=\"http://www.w3.org/1999/xhtml\"><a name=\"Task_propose-pulmonary-embolism\"> </a><p class=\"res-header-id\"><b>Generated Narrative: Task propose-pulmonary-embolism</b></p><a name=\"propose-pulmonary-embolism\"> </a><a name=\"hcpropose-pulmonary-embolism\"> </a><a name=\"propose-pulmonary-embolism-en-US\"> </a><p><b>status</b>: Requested</p><p><b>intent</b>: proposal</p><p><b>code</b>: <span title=\"Codes:{http://hl7.org/fhir/uv/cpg/CodeSystem/cpg-activity-type-cs propose-diagnosis}\">Propose a diagnosis</span></p><p><b>for</b>: <a href=\"Patient-X.html\">Anonymous Patient Male, DoB: 1972-05-24</a></p><h3>Inputs</h3><table class=\"grid\"><tr><td style=\"display: none\">-</td><td><b>Type</b></td><td><b>Value[x]</b></td></tr><tr><td style=\"display: none\">*</td><td><span title=\"Codes:{http://hl7.org/fhir/uv/cpg/CodeSystem/cpg-activity-type-cs propose-diagnosis}\">Propose a diagnosis PE</span></td><td><a href=\"Condition-proposed-diagnosis-pe.html\">Condition Pulmonary embolism</a></td></tr></table></div>"
      },
      "status" : "requested",
      "intent" : "proposal",
      "code" : {
        "coding" : [{
          "system" : "http://hl7.org/fhir/uv/cpg/CodeSystem/cpg-activity-type-cs",
          "code" : "propose-diagnosis",
          "display" : "Propose a diagnosis"
        }]
      },
      "for" : {
        "reference" : "Patient/X"
      },
      "input" : [{
        "type" : {
          "coding" : [{
            "system" : "http://hl7.org/fhir/uv/cpg/CodeSystem/cpg-activity-type-cs",
            "code" : "propose-diagnosis",
            "display" : "Propose a diagnosis PE"
          }]
        },
        "valueReference" : {
          "reference" : "Condition/proposed-diagnosis-pe"
        }
      }]
    }
  },
  {
    "fullUrl" : "urn:uuid:30551ce1-5a28-4356-b684-1e639094ad10",
    "resource" : {
      "resourceType" : "Task",
      "id" : "propose-acute-coronary-syndrome",
      "text" : {
        "status" : "generated",
        "div" : "<div xmlns=\"http://www.w3.org/1999/xhtml\"><a name=\"Task_propose-acute-coronary-syndrome\"> </a><p class=\"res-header-id\"><b>Generated Narrative: Task propose-acute-coronary-syndrome</b></p><a name=\"propose-acute-coronary-syndrome\"> </a><a name=\"hcpropose-acute-coronary-syndrome\"> </a><a name=\"propose-acute-coronary-syndrome-en-US\"> </a><p><b>status</b>: Requested</p><p><b>intent</b>: proposal</p><p><b>code</b>: <span title=\"Codes:{http://hl7.org/fhir/uv/cpg/CodeSystem/cpg-activity-type-cs propose-diagnosis}\">Propose a diagnosis</span></p><p><b>for</b>: <a href=\"Patient-X.html\">Anonymous Patient Male, DoB: 1972-05-24</a></p><h3>Inputs</h3><table class=\"grid\"><tr><td style=\"display: none\">-</td><td><b>Type</b></td><td><b>Value[x]</b></td></tr><tr><td style=\"display: none\">*</td><td><span title=\"Codes:{http://hl7.org/fhir/uv/cpg/CodeSystem/cpg-activity-type-cs propose-diagnosis}\">Propose a diagnosis</span></td><td><a href=\"#hcpropose-acute-coronary-syndrome/proposed-diagnosis-acs\">Condition Acute coronary syndrome</a></td></tr></table><hr/><blockquote><p class=\"res-header-id\"><b>Generated Narrative: Condition  #proposed-diagnosis-acs</b></p><a name=\"propose-acute-coronary-syndrome/proposed-diagnosis-acs\"> </a><a name=\"hcpropose-acute-coronary-syndrome/proposed-diagnosis-acs\"> </a><a name=\"propose-acute-coronary-syndrome/proposed-diagnosis-acs-en-US\"> </a><p><b>clinicalStatus</b>: <span title=\"Codes:{http://terminology.hl7.org/CodeSystem/condition-clinical active}\">Active</span></p><p><b>verificationStatus</b>: <span title=\"Codes:{http://terminology.hl7.org/CodeSystem/condition-ver-status provisional}\">Provisional</span></p><p><b>category</b>: <span title=\"Codes:{http://terminology.hl7.org/CodeSystem/condition-category problem-list-item}\">Problem List Item</span></p><p><b>code</b>: <span title=\"Codes:{http://snomed.info/sct 394659003}\">Acute coronary syndrome</span></p><p><b>subject</b>: <a href=\"Patient-X.html\">Anonymous Patient Male, DoB: 1972-05-24</a></p><p><b>onset</b>: 2024-10-13</p></blockquote></div>"
      },
      "contained" : [{
        "resourceType" : "Condition",
        "id" : "proposed-diagnosis-acs",
        "meta" : {
          "profile" : ["http://hl7.org/fhir/uv/cpg/StructureDefinition/cpg-condition"]
        },
        "clinicalStatus" : {
          "coding" : [{
            "system" : "http://terminology.hl7.org/CodeSystem/condition-clinical",
            "code" : "active"
          }]
        },
        "verificationStatus" : {
          "coding" : [{
            "system" : "http://terminology.hl7.org/CodeSystem/condition-ver-status",
            "code" : "provisional"
          }]
        },
        "category" : [{
          "coding" : [{
            "system" : "http://terminology.hl7.org/CodeSystem/condition-category",
            "code" : "problem-list-item"
          }]
        }],
        "code" : {
          "coding" : [{
            "system" : "http://snomed.info/sct",
            "code" : "394659003",
            "display" : "Acute coronary syndrome"
          }],
          "text" : "Acute coronary syndrome"
        },
        "subject" : {
          "reference" : "Patient/X"
        },
        "onsetDateTime" : "2024-10-13"
      }],
      "status" : "requested",
      "intent" : "proposal",
      "code" : {
        "coding" : [{
          "system" : "http://hl7.org/fhir/uv/cpg/CodeSystem/cpg-activity-type-cs",
          "code" : "propose-diagnosis",
          "display" : "Propose a diagnosis"
        }]
      },
      "for" : {
        "reference" : "Patient/X"
      },
      "input" : [{
        "type" : {
          "coding" : [{
            "system" : "http://hl7.org/fhir/uv/cpg/CodeSystem/cpg-activity-type-cs",
            "code" : "propose-diagnosis",
            "display" : "Propose a diagnosis"
          }]
        },
        "valueReference" : {
          "reference" : "#proposed-diagnosis-acs"
        }
      }]
    }
  },
  {
    "fullUrl" : "urn:uuid:30551ce1-5a28-4356-b684-1e639094ad11",
    "resource" : {
      "resourceType" : "Task",
      "id" : "propose-pneumothorax",
      "text" : {
        "status" : "generated",
        "div" : "<div xmlns=\"http://www.w3.org/1999/xhtml\"><a name=\"Task_propose-pneumothorax\"> </a><p class=\"res-header-id\"><b>Generated Narrative: Task propose-pneumothorax</b></p><a name=\"propose-pneumothorax\"> </a><a name=\"hcpropose-pneumothorax\"> </a><a name=\"propose-pneumothorax-en-US\"> </a><p><b>status</b>: Requested</p><p><b>intent</b>: proposal</p><p><b>code</b>: <span title=\"Codes:{http://hl7.org/fhir/uv/cpg/CodeSystem/cpg-activity-type-cs propose-diagnosis}\">Propose a diagnosis</span></p><p><b>for</b>: <a href=\"Patient-X.html\">Anonymous Patient Male, DoB: 1972-05-24</a></p><h3>Inputs</h3><table class=\"grid\"><tr><td style=\"display: none\">-</td><td><b>Type</b></td><td><b>Value[x]</b></td></tr><tr><td style=\"display: none\">*</td><td><span title=\"Codes:{http://hl7.org/fhir/uv/cpg/CodeSystem/cpg-activity-type-cs propose-diagnosis}\">Propose a diagnosis</span></td><td><a href=\"#hcpropose-pneumothorax/proposed-diagnosis-pt\">Condition Pneumothorax</a></td></tr></table><hr/><blockquote><p class=\"res-header-id\"><b>Generated Narrative: Condition  #proposed-diagnosis-pt</b></p><a name=\"propose-pneumothorax/proposed-diagnosis-pt\"> </a><a name=\"hcpropose-pneumothorax/proposed-diagnosis-pt\"> </a><a name=\"propose-pneumothorax/proposed-diagnosis-pt-en-US\"> </a><p><b>clinicalStatus</b>: <span title=\"Codes:{http://terminology.hl7.org/CodeSystem/condition-clinical active}\">Active</span></p><p><b>verificationStatus</b>: <span title=\"Codes:{http://terminology.hl7.org/CodeSystem/condition-ver-status provisional}\">Provisional</span></p><p><b>category</b>: <span title=\"Codes:{http://terminology.hl7.org/CodeSystem/condition-category problem-list-item}\">Problem List Item</span></p><p><b>code</b>: <span title=\"Codes:{http://snomed.info/sct 36118008}\">Pneumothorax</span></p><p><b>subject</b>: <a href=\"Patient-X.html\">Anonymous Patient Male, DoB: 1972-05-24</a></p><p><b>onset</b>: 2024-10-13</p></blockquote></div>"
      },
      "contained" : [{
        "resourceType" : "Condition",
        "id" : "proposed-diagnosis-pt",
        "meta" : {
          "profile" : ["http://hl7.org/fhir/uv/cpg/StructureDefinition/cpg-condition"]
        },
        "clinicalStatus" : {
          "coding" : [{
            "system" : "http://terminology.hl7.org/CodeSystem/condition-clinical",
            "code" : "active"
          }]
        },
        "verificationStatus" : {
          "coding" : [{
            "system" : "http://terminology.hl7.org/CodeSystem/condition-ver-status",
            "code" : "provisional"
          }]
        },
        "category" : [{
          "coding" : [{
            "system" : "http://terminology.hl7.org/CodeSystem/condition-category",
            "code" : "problem-list-item"
          }]
        }],
        "code" : {
          "coding" : [{
            "system" : "http://snomed.info/sct",
            "code" : "36118008",
            "display" : "Pneumothorax"
          }],
          "text" : "Pneumothorax"
        },
        "subject" : {
          "reference" : "Patient/X"
        },
        "onsetDateTime" : "2024-10-13"
      }],
      "status" : "requested",
      "intent" : "proposal",
      "code" : {
        "coding" : [{
          "system" : "http://hl7.org/fhir/uv/cpg/CodeSystem/cpg-activity-type-cs",
          "code" : "propose-diagnosis",
          "display" : "Propose a diagnosis"
        }]
      },
      "for" : {
        "reference" : "Patient/X"
      },
      "input" : [{
        "type" : {
          "coding" : [{
            "system" : "http://hl7.org/fhir/uv/cpg/CodeSystem/cpg-activity-type-cs",
            "code" : "propose-diagnosis",
            "display" : "Propose a diagnosis"
          }]
        },
        "valueReference" : {
          "reference" : "#proposed-diagnosis-pt"
        }
      }]
    }
  }]
}