<?xml version="1.0" encoding="UTF-8"?>

<Bundle xmlns="http://hl7.org/fhir">
  <id value="getdatatocollect-a-response"/>
  <meta>
    <profile value="https://www.ehealth.fgov.be/standards/fhir/pss/StructureDefinition/PSSResponseBundle"/>
  </meta>
  <identifier>
    <value value="response1"/>
  </identifier>
  <type value="collection"/>
  <timestamp value="2025-02-20T00:00:00Z"/>
  <entry>
    <fullUrl value="urn:uuid:30551ce1-5a28-4356-b684-2e639094ad4d"/>
    <resource>
      <RequestGroup>
        <id value="getdatatocollect-a-response-group"/>
        <text>
          <status value="generated"/><div xmlns="http://www.w3.org/1999/xhtml"><a name="RequestGroup_getdatatocollect-a-response-group"> </a><p class="res-header-id"><b>Generated Narrative: RequestGroup getdatatocollect-a-response-group</b></p><a name="getdatatocollect-a-response-group"> </a><a name="hcgetdatatocollect-a-response-group"> </a><p><b>status</b>: Active</p><p><b>intent</b>: Proposal</p><p><b>subject</b>: <a href="Patient-30551ce1-5a28-4356-b684-2e639094ad48.html"> Female, DoB Unknown</a></p><blockquote><p><b>action</b></p><p><b>selectionBehavior</b>: At Most One</p><h3>Actions</h3><table class="grid"><tr><td style="display: none">-</td><td><b>TextEquivalent</b></td><td><b>Resource</b></td></tr><tr><td style="display: none">*</td><td>Collect information</td><td><a href="Task-30551ce1-5a28-4356-b684-11ef43a67755.html">Task Collect information</a></td></tr></table></blockquote></div>
        </text>
        <status value="active"/>
        <intent value="proposal"/>
        <subject>
          <reference value="Patient/30551ce1-5a28-4356-b684-2e639094ad48"/>
        </subject>
        <action>
          <selectionBehavior value="at-most-one"/>
          <action>
            <textEquivalent value="Collect information"/>
            <resource>
              <reference value="Task/30551ce1-5a28-4356-b684-11ef43a67755"/>
            </resource>
          </action>
        </action>
      </RequestGroup>
    </resource>
  </entry>
  <entry>
    <fullUrl value="urn:uuid:30551ce1-5a28-4356-b684-11ef43a67755"/>
    <resource>
      <Task>
        <id value="30551ce1-5a28-4356-b684-11ef43a67755"/>
        <meta>
          <profile value="https://www.ehealth.fgov.be/standards/fhir/pss/StructureDefinition/PSSQuestionnaireTask"/>
        </meta>
        <text>
          <status value="generated"/><div xmlns="http://www.w3.org/1999/xhtml"><a name="Task_30551ce1-5a28-4356-b684-11ef43a67755"> </a><p class="res-header-id"><b>Generated Narrative: Task 30551ce1-5a28-4356-b684-11ef43a67755</b></p><a name="30551ce1-5a28-4356-b684-11ef43a67755"> </a><a name="hc30551ce1-5a28-4356-b684-11ef43a67755"> </a><div style="display: inline-block; background-color: #d9e0e7; padding: 6px; margin: 4px; border: 1px solid #8da1b4; border-radius: 5px; line-height: 60%"><p style="margin-bottom: 0px"/><p style="margin-bottom: 0px">Profile: <a href="StructureDefinition-PSSQuestionnaireTask.html">PSS Questionnaire Task</a></p></div><p><b>status</b>: Requested</p><p><b>intent</b>: proposal</p><p><b>code</b>: <span title="Codes:{http://hl7.org/fhir/uv/cpg/CodeSystem/cpg-activity-type-cs collect-information}">Collect information</span></p><p><b>for</b>: <a href="Patient-30551ce1-5a28-4356-b684-2e639094ad48.html"> Female, DoB Unknown</a></p><h3>Inputs</h3><table class="grid"><tr><td style="display: none">-</td><td><b>Type</b></td><td><b>Value[x]</b></td></tr><tr><td style="display: none">*</td><td><span title="Codes:{http://hl7.org/fhir/uv/cpg/CodeSystem/cpg-activity-type-cs collect-information}">Collect information</span></td><td><a href="Questionnaire-30551ce1-5a28-4356-b684-2e639094ad4c.html">Questionnaire[https://www.ehealth.fgov.be/standards/fhir/pss/Questionnaire/30551ce1-5a28-4356-b684-2e639094ad4c|1.0.0]</a></td></tr></table></div>
        </text>
        <status value="requested"/>
        <intent value="proposal"/>
        <code>
          <coding>
            <system value="http://hl7.org/fhir/uv/cpg/CodeSystem/cpg-activity-type-cs"/>
            <code value="collect-information"/>
            <display value="Collect information"/>
          </coding>
        </code>
        <for>
          <reference value="Patient/30551ce1-5a28-4356-b684-2e639094ad48"/>
        </for>
        <input>
          <type>
            <coding>
              <system value="http://hl7.org/fhir/uv/cpg/CodeSystem/cpg-activity-type-cs"/>
              <code value="collect-information"/>
              <display value="Collect information"/>
            </coding>
          </type>
          <valueCanonical value="https://www.ehealth.fgov.be/standards/fhir/pss/Questionnaire/30551ce1-5a28-4356-b684-2e639094ad4c"/>
        </input>
      </Task>
    </resource>
  </entry>
  <entry>
    <fullUrl value="urn:uuid:30551ce1-5a28-4356-b684-2e639094ad4c"/>
    <resource>
      <Questionnaire>
        <id value="30551ce1-5a28-4356-b684-2e639094ad4c"/>
        <meta>
          <profile value="https://www.ehealth.fgov.be/standards/fhir/pss/StructureDefinition/PSSDataAcquisitionForm"/>
        </meta>
        <language value="nl-BE"/>
        <text>
          <status value="generated"/><div xmlns="http://www.w3.org/1999/xhtml" xml:lang="nl-BE" lang="nl-BE"><a name="Questionnaire_30551ce1-5a28-4356-b684-2e639094ad4c"> </a><p class="res-header-id"><b>Generated Narrative: Questionnaire 30551ce1-5a28-4356-b684-2e639094ad4c</b></p><a name="30551ce1-5a28-4356-b684-2e639094ad4c"> </a><a name="hc30551ce1-5a28-4356-b684-2e639094ad4c"> </a><div style="display: inline-block; background-color: #d9e0e7; padding: 6px; margin: 4px; border: 1px solid #8da1b4; border-radius: 5px; line-height: 60%"><p style="margin-bottom: 0px">Language: nl-BE</p><p style="margin-bottom: 0px">Profile: <a href="StructureDefinition-PSSDataAcquisitionForm.html">PSS Data Acquisition Form</a></p></div><b>Structure</b><table border="1" cellpadding="0" cellspacing="0" style="border: 1px #F0F0F0 solid; font-size: 11px; font-family: verdana; vertical-align: top;"><tr style="border: 2px #F0F0F0 solid; font-size: 11px; font-family: verdana; vertical-align: top"><th style="vertical-align: top; text-align : var(--ig-left,left); background-color: white; border: 1px #F0F0F0 solid; padding:0px 4px 0px 4px; padding-top: 3px; padding-bottom: 3px" class="hierarchy"><a href="https://hl7.org/fhir/R4/formats.html#table" title="The linkID for the item">LinkID</a></th><th style="vertical-align: top; text-align : var(--ig-left,left); background-color: white; border: 1px #F0F0F0 solid; padding:0px 4px 0px 4px; padding-top: 3px; padding-bottom: 3px" class="hierarchy"><a href="https://hl7.org/fhir/R4/formats.html#table" title="Text for the item">Text</a></th><th style="vertical-align: top; text-align : var(--ig-left,left); background-color: white; border: 1px #F0F0F0 solid; padding:0px 4px 0px 4px; padding-top: 3px; padding-bottom: 3px" class="hierarchy"><a href="https://hl7.org/fhir/R4/formats.html#table" title="Minimum and Maximum # of times the item can appear in the instance">Cardinality</a></th><th style="vertical-align: top; text-align : var(--ig-left,left); background-color: white; border: 1px #F0F0F0 solid; padding:0px 4px 0px 4px; padding-top: 3px; padding-bottom: 3px" class="hierarchy"><a href="https://hl7.org/fhir/R4/formats.html#table" title="The type of the item">Type</a></th><th style="vertical-align: top; text-align : var(--ig-left,left); background-color: white; border: 1px #F0F0F0 solid; padding:0px 4px 0px 4px; padding-top: 3px; padding-bottom: 3px" class="hierarchy"><a href="https://hl7.org/fhir/R4/formats.html#table" title="Additional information about the item">Description &amp; Constraints</a><span style="float: right"><a href="https://hl7.org/fhir/R4/formats.html#table" title="Legend for this format"><img src="data:image/png;base64," alt="doco" style="background-color: inherit"/></a></span></th></tr><tr style="border: 1px #F0F0F0 solid; padding:0px; vertical-align: top; background-color: white"><td style="vertical-align: top; text-align : var(--ig-left,left); background-color: white; border: 1px #F0F0F0 solid; padding:0px 4px 0px 4px; white-space: nowrap; background-image: url(tbl_bck1.png)" class="hierarchy"><img src="tbl_spacer.png" alt="." style="background-color: inherit" class="hierarchy"/><img src="icon_q_root.gif" alt="." style="background-color: white; background-color: inherit" title="QuestionnaireRoot" class="hierarchy"/> </td><td style="vertical-align: top; text-align : var(--ig-left,left); background-color: white; border: 1px #F0F0F0 solid; padding:0px 4px 0px 4px" class="hierarchy"/><td style="vertical-align: top; text-align : var(--ig-left,left); background-color: white; border: 1px #F0F0F0 solid; padding:0px 4px 0px 4px" class="hierarchy"></td><td style="vertical-align: top; text-align : var(--ig-left,left); background-color: white; border: 1px #F0F0F0 solid; padding:0px 4px 0px 4px" class="hierarchy">Questionnaire</td><td style="vertical-align: top; text-align : var(--ig-left,left); background-color: white; border: 1px #F0F0F0 solid; padding:0px 4px 0px 4px" class="hierarchy"></td></tr>
<tr style="border: 1px #F0F0F0 solid; padding:0px; vertical-align: top; background-color: #F7F7F7"><td style="vertical-align: top; text-align : var(--ig-left,left); background-color: #F7F7F7; border: 1px #F0F0F0 solid; padding:0px 4px 0px 4px; white-space: nowrap; background-image: url(tbl_bck10.png)" id="item.sp_excMand_knownPathogen_vag" class="hierarchy"><img src="tbl_spacer.png" alt="." style="background-color: inherit" class="hierarchy"/><img src="tbl_vjoin.png" alt="." style="background-color: inherit" class="hierarchy"/><img src="icon-q-choice.png" alt="." style="background-color: #F7F7F7; background-color: inherit" title="choice" class="hierarchy"/> sp_excMand_knownPathogen_vag</td><td style="vertical-align: top; text-align : var(--ig-left,left); background-color: #F7F7F7; border: 1px #F0F0F0 solid; padding:0px 4px 0px 4px" class="hierarchy">Oorzakelijke kiem vulvo-vaginitis</td><td style="vertical-align: top; text-align : var(--ig-left,left); background-color: #F7F7F7; border: 1px #F0F0F0 solid; padding:0px 4px 0px 4px" class="hierarchy">1..1</td><td style="vertical-align: top; text-align : var(--ig-left,left); background-color: #F7F7F7; border: 1px #F0F0F0 solid; padding:0px 4px 0px 4px" class="hierarchy"><a href="https://hl7.org/fhir/R4/codesystem-item-type.html#item-type-choice">choice</a></td><td style="vertical-align: top; text-align : var(--ig-left,left); background-color: #F7F7F7; border: 1px #F0F0F0 solid; padding:0px 4px 0px 4px" class="hierarchy">Options: <a href="#opt-item.sp_excMand_knownPathogen_vag">3 options</a></td></tr>
<tr style="border: 1px #F0F0F0 solid; padding:0px; vertical-align: top; background-color: white"><td style="vertical-align: top; text-align : var(--ig-left,left); background-color: white; border: 1px #F0F0F0 solid; padding:0px 4px 0px 4px; white-space: nowrap; background-image: url(tbl_bck10.png)" id="item.pv_pregnant" class="hierarchy"><img src="tbl_spacer.png" alt="." style="background-color: inherit" class="hierarchy"/><img src="tbl_vjoin.png" alt="." style="background-color: inherit" class="hierarchy"/><img src="icon-q-boolean.png" alt="." style="background-color: white; background-color: inherit" title="boolean" class="hierarchy"/> pv_pregnant</td><td style="vertical-align: top; text-align : var(--ig-left,left); background-color: white; border: 1px #F0F0F0 solid; padding:0px 4px 0px 4px" class="hierarchy">Zwangerschap</td><td style="vertical-align: top; text-align : var(--ig-left,left); background-color: white; border: 1px #F0F0F0 solid; padding:0px 4px 0px 4px" class="hierarchy">0..1</td><td style="vertical-align: top; text-align : var(--ig-left,left); background-color: white; border: 1px #F0F0F0 solid; padding:0px 4px 0px 4px" class="hierarchy"><a href="https://hl7.org/fhir/R4/codesystem-item-type.html#item-type-boolean">boolean</a></td><td style="vertical-align: top; text-align : var(--ig-left,left); background-color: white; border: 1px #F0F0F0 solid; padding:0px 4px 0px 4px" class="hierarchy"/></tr>
<tr style="border: 1px #F0F0F0 solid; padding:0px; vertical-align: top; background-color: #F7F7F7"><td style="vertical-align: top; text-align : var(--ig-left,left); background-color: #F7F7F7; border: 1px #F0F0F0 solid; padding:0px 4px 0px 4px; white-space: nowrap; background-image: url(tbl_bck10.png)" id="item.sp_exc_causalPathogen_ure" class="hierarchy"><img src="tbl_spacer.png" alt="." style="background-color: inherit" class="hierarchy"/><img src="tbl_vjoin.png" alt="." style="background-color: inherit" class="hierarchy"/><img src="icon-q-choice.png" alt="." style="background-color: #F7F7F7; background-color: inherit" title="choice" class="hierarchy"/> sp_exc_causalPathogen_ure</td><td style="vertical-align: top; text-align : var(--ig-left,left); background-color: #F7F7F7; border: 1px #F0F0F0 solid; padding:0px 4px 0px 4px" class="hierarchy">Oorzakelijke kiem Urethritis</td><td style="vertical-align: top; text-align : var(--ig-left,left); background-color: #F7F7F7; border: 1px #F0F0F0 solid; padding:0px 4px 0px 4px" class="hierarchy">0..1</td><td style="vertical-align: top; text-align : var(--ig-left,left); background-color: #F7F7F7; border: 1px #F0F0F0 solid; padding:0px 4px 0px 4px" class="hierarchy"><a href="https://hl7.org/fhir/R4/codesystem-item-type.html#item-type-choice">choice</a></td><td style="vertical-align: top; text-align : var(--ig-left,left); background-color: #F7F7F7; border: 1px #F0F0F0 solid; padding:0px 4px 0px 4px" class="hierarchy">Options: <a href="#opt-item.sp_exc_causalPathogen_ure">4 options</a></td></tr>
<tr style="border: 1px #F0F0F0 solid; padding:0px; vertical-align: top; background-color: white"><td style="vertical-align: top; text-align : var(--ig-left,left); background-color: white; border: 1px #F0F0F0 solid; padding:0px 4px 0px 4px; white-space: nowrap; background-image: url(tbl_bck01.png)" id="item.sp_riskPatient_ast" class="hierarchy"><img src="tbl_spacer.png" alt="." style="background-color: inherit" class="hierarchy"/><img src="tbl_vjoin_end.png" alt="." style="background-color: inherit" class="hierarchy"/><img src="icon-q-boolean.png" alt="." style="background-color: white; background-color: inherit" title="boolean" class="hierarchy"/> sp_riskPatient_ast</td><td style="vertical-align: top; text-align : var(--ig-left,left); background-color: white; border: 1px #F0F0F0 solid; padding:0px 4px 0px 4px" class="hierarchy">Risicopatiënt</td><td style="vertical-align: top; text-align : var(--ig-left,left); background-color: white; border: 1px #F0F0F0 solid; padding:0px 4px 0px 4px" class="hierarchy">0..1</td><td style="vertical-align: top; text-align : var(--ig-left,left); background-color: white; border: 1px #F0F0F0 solid; padding:0px 4px 0px 4px" class="hierarchy"><a href="https://hl7.org/fhir/R4/codesystem-item-type.html#item-type-boolean">boolean</a></td><td style="vertical-align: top; text-align : var(--ig-left,left); background-color: white; border: 1px #F0F0F0 solid; padding:0px 4px 0px 4px" class="hierarchy"/></tr>
<tr style="border: 1px #F0F0F0 solid; padding:0px; vertical-align: top; background-color: #F7F7F7"><td style="vertical-align: top; text-align : var(--ig-left,left); background-color: #F7F7F7; border: 1px #F0F0F0 solid; padding:0px 4px 0px 4px; white-space: nowrap; background-image: url(tbl_bck010.png)" id="item.pv_compromisedImmuneSystem" class="hierarchy"><img src="tbl_spacer.png" alt="." style="background-color: inherit" class="hierarchy"/><img src="tbl_blank.png" alt="." style="background-color: inherit" class="hierarchy"/><img src="tbl_vjoin.png" alt="." style="background-color: inherit" class="hierarchy"/><img src="icon-q-boolean.png" alt="." style="background-color: #F7F7F7; background-color: inherit" title="boolean" class="hierarchy"/> pv_compromisedImmuneSystem</td><td style="vertical-align: top; text-align : var(--ig-left,left); background-color: #F7F7F7; border: 1px #F0F0F0 solid; padding:0px 4px 0px 4px" class="hierarchy">Gecompromitteerd immuunsysteem</td><td style="vertical-align: top; text-align : var(--ig-left,left); background-color: #F7F7F7; border: 1px #F0F0F0 solid; padding:0px 4px 0px 4px" class="hierarchy">0..1</td><td style="vertical-align: top; text-align : var(--ig-left,left); background-color: #F7F7F7; border: 1px #F0F0F0 solid; padding:0px 4px 0px 4px" class="hierarchy"><a href="https://hl7.org/fhir/R4/codesystem-item-type.html#item-type-boolean">boolean</a></td><td style="vertical-align: top; text-align : var(--ig-left,left); background-color: #F7F7F7; border: 1px #F0F0F0 solid; padding:0px 4px 0px 4px" class="hierarchy"/></tr>
<tr style="border: 1px #F0F0F0 solid; padding:0px; vertical-align: top; background-color: white"><td style="vertical-align: top; text-align : var(--ig-left,left); background-color: white; border: 1px #F0F0F0 solid; padding:0px 4px 0px 4px; white-space: nowrap; background-image: url(tbl_bck000.png)" id="item.pv_oncologyPatient" class="hierarchy"><img src="tbl_spacer.png" alt="." style="background-color: inherit" class="hierarchy"/><img src="tbl_blank.png" alt="." style="background-color: inherit" class="hierarchy"/><img src="tbl_vjoin_end.png" alt="." style="background-color: inherit" class="hierarchy"/><img src="icon-q-boolean.png" alt="." style="background-color: white; background-color: inherit" title="boolean" class="hierarchy"/> pv_oncologyPatient</td><td style="vertical-align: top; text-align : var(--ig-left,left); background-color: white; border: 1px #F0F0F0 solid; padding:0px 4px 0px 4px" class="hierarchy">Oncologische patiënt</td><td style="vertical-align: top; text-align : var(--ig-left,left); background-color: white; border: 1px #F0F0F0 solid; padding:0px 4px 0px 4px" class="hierarchy">0..1</td><td style="vertical-align: top; text-align : var(--ig-left,left); background-color: white; border: 1px #F0F0F0 solid; padding:0px 4px 0px 4px" class="hierarchy"><a href="https://hl7.org/fhir/R4/codesystem-item-type.html#item-type-boolean">boolean</a></td><td style="vertical-align: top; text-align : var(--ig-left,left); background-color: white; border: 1px #F0F0F0 solid; padding:0px 4px 0px 4px" class="hierarchy"/></tr>
<tr><td colspan="5" class="hierarchy"><br/><a href="https://hl7.org/fhir/R4/formats.html#table" title="Legend for this format"><img src="data:image/png;base64," alt="doco" style="background-color: inherit"/> Documentation for this format</a></td></tr></table><hr/><p><b>Options Sets</b></p><a name="opt-item.sp_excMand_knownPathogen_vag"> </a><p><b>Answer options for sp_excMand_knownPathogen_vag </b></p><ul><li style="font-size: 11px">null#pv_candida_vag (&quot;Candida vaginitis&quot;)</li><li style="font-size: 11px">null#pv_trichomonas_vag (&quot;Trichomonas vaginalis&quot;)</li><li style="font-size: 11px">null#pv_bacterial_vag (&quot;Bacteriële vaginose&quot;)</li></ul><a name="opt-item.sp_exc_causalPathogen_ure"> </a><p><b>Answer options for sp_exc_causalPathogen_ure </b></p><ul><li style="font-size: 11px">null#pv_causalPatChlamydia_ure (&quot;Chlamydia&quot;)</li><li style="font-size: 11px">null#pv_causalPatGonokok_ure (&quot;Gonokok&quot;)</li><li style="font-size: 11px">null#pv_causalPatMycoplasma_ure (&quot;Mycoplasma genitalium&quot;)</li><li style="font-size: 11px">null#pv_causalPatOther_ure (&quot;Andere&quot;)</li></ul></div>
        </text>
        <status value="active"/>
        <item>
          <linkId value="sp_excMand_knownPathogen_vag"/>
          <text value="Oorzakelijke kiem vulvo-vaginitis">
            <extension url="http://hl7.org/fhir/StructureDefinition/translation">
              <extension url="lang">
                <valueCode value="fr-BE"/>
              </extension>
              <extension url="content">
                <valueString value="Germe causal vulvo vaginite"/>
              </extension>
            </extension>
          </text>
          <type value="choice"/>
          <required value="true"/>
          <repeats value="false"/>
          <answerOption>
            <extension url="https://www.ehealth.fgov.be/standards/fhir/pss/StructureDefinition/CodeValueSet">
              <valueCanonical value="https://www.ehealth.fgov.be/standards/fhir/pss/ValueSet/CandidaCodes"/>
            </extension>
            <valueCoding>
              <code value="pv_candida_vag"/>
              <display value="Candida vaginitis">
                <extension url="http://hl7.org/fhir/StructureDefinition/translation">
                  <extension url="lang">
                    <valueCode value="fr-BE"/>
                  </extension>
                  <extension url="content">
                    <valueString value="Vaginite à candida"/>
                  </extension>
                </extension>
              </display>
            </valueCoding>
          </answerOption>
          <answerOption>
            <extension url="https://www.ehealth.fgov.be/standards/fhir/pss/StructureDefinition/CodeValueSet">
              <valueCanonical value="https://www.ehealth.fgov.be/standards/fhir/pss/ValueSet/TrichomonasCodes"/>
            </extension>
            <valueCoding>
              <code value="pv_trichomonas_vag"/>
              <display value="Trichomonas vaginalis">
                <extension url="http://hl7.org/fhir/StructureDefinition/translation">
                  <extension url="lang">
                    <valueCode value="fr-BE"/>
                  </extension>
                  <extension url="content">
                    <valueString value="Trichomonas vaginalis"/>
                  </extension>
                </extension>
              </display>
            </valueCoding>
          </answerOption>
          <answerOption>
            <extension url="https://www.ehealth.fgov.be/standards/fhir/pss/StructureDefinition/CodeValueSet">
              <valueCanonical value="https://www.ehealth.fgov.be/standards/fhir/pss/ValueSet/BacterialCodes"/>
            </extension>
            <valueCoding>
              <code value="pv_bacterial_vag"/>
              <display value="Bacteriële vaginose">
                <extension url="http://hl7.org/fhir/StructureDefinition/translation">
                  <extension url="lang">
                    <valueCode value="fr-BE"/>
                  </extension>
                  <extension url="content">
                    <valueString value="Vaginose bactérienne"/>
                  </extension>
                </extension>
              </display>
            </valueCoding>
          </answerOption>
        </item>
        <item>
          <extension url="https://www.ehealth.fgov.be/standards/fhir/pss/StructureDefinition/CodeValueSet">
            <valueCanonical value="https://www.ehealth.fgov.be/standards/fhir/pss/ValueSet/PregnancyCodes"/>
          </extension>
          <linkId value="pv_pregnant"/>
          <text value="Zwangerschap">
            <extension url="http://hl7.org/fhir/StructureDefinition/translation">
              <extension url="lang">
                <valueCode value="fr-BE"/>
              </extension>
              <extension url="content">
                <valueString value="Grossesse"/>
              </extension>
            </extension>
          </text>
          <type value="boolean"/>
        </item>
        <item>
          <linkId value="sp_exc_causalPathogen_ure"/>
          <text value="Oorzakelijke kiem Urethritis">
            <extension url="http://hl7.org/fhir/StructureDefinition/translation">
              <extension url="lang">
                <valueCode value="fr-BE"/>
              </extension>
              <extension url="content">
                <valueString value="Germe causal Urétrite"/>
              </extension>
            </extension>
          </text>
          <type value="choice"/>
          <repeats value="false"/>
          <answerOption>
            <extension url="https://www.ehealth.fgov.be/standards/fhir/pss/StructureDefinition/CodeValueSet">
              <valueCanonical value="https://www.ehealth.fgov.be/standards/fhir/pss/ValueSet/ChlamydiaCodes"/>
            </extension>
            <valueCoding>
              <code value="pv_causalPatChlamydia_ure"/>
              <display value="Chlamydia">
                <extension url="http://hl7.org/fhir/StructureDefinition/translation">
                  <extension url="lang">
                    <valueCode value="fr-BE"/>
                  </extension>
                  <extension url="content">
                    <valueString value="Chlamydia"/>
                  </extension>
                </extension>
              </display>
            </valueCoding>
          </answerOption>
          <answerOption>
            <extension url="https://www.ehealth.fgov.be/standards/fhir/pss/StructureDefinition/CodeValueSet">
              <valueCanonical value="https://www.ehealth.fgov.be/standards/fhir/pss/ValueSet/GonokokCodes"/>
            </extension>
            <valueCoding>
              <code value="pv_causalPatGonokok_ure"/>
              <display value="Gonokok">
                <extension url="http://hl7.org/fhir/StructureDefinition/translation">
                  <extension url="lang">
                    <valueCode value="fr-BE"/>
                  </extension>
                  <extension url="content">
                    <valueString value="Gonocoque"/>
                  </extension>
                </extension>
              </display>
            </valueCoding>
          </answerOption>
          <answerOption>
            <extension url="https://www.ehealth.fgov.be/standards/fhir/pss/StructureDefinition/CodeValueSet">
              <valueCanonical value="https://www.ehealth.fgov.be/standards/fhir/pss/ValueSet/MycoplasmaCodes"/>
            </extension>
            <valueCoding>
              <code value="pv_causalPatMycoplasma_ure"/>
              <display value="Mycoplasma genitalium">
                <extension url="http://hl7.org/fhir/StructureDefinition/translation">
                  <extension url="lang">
                    <valueCode value="fr-BE"/>
                  </extension>
                  <extension url="content">
                    <valueString value="Mycoplasma genitalium"/>
                  </extension>
                </extension>
              </display>
            </valueCoding>
          </answerOption>
          <answerOption>
            <extension url="https://www.ehealth.fgov.be/standards/fhir/pss/StructureDefinition/CodeValueSet">
              <valueCanonical value="https://www.ehealth.fgov.be/standards/fhir/pss/ValueSet/OtherCodes"/>
            </extension>
            <valueCoding>
              <code value="pv_causalPatOther_ure"/>
              <display value="Andere">
                <extension url="http://hl7.org/fhir/StructureDefinition/translation">
                  <extension url="lang">
                    <valueCode value="fr-BE"/>
                  </extension>
                  <extension url="content">
                    <valueString value="Autres"/>
                  </extension>
                </extension>
              </display>
            </valueCoding>
          </answerOption>
        </item>
        <item>
          <linkId value="sp_riskPatient_ast"/>
          <text value="Risicopatiënt">
            <extension url="http://hl7.org/fhir/StructureDefinition/translation">
              <extension url="lang">
                <valueCode value="fr-BE"/>
              </extension>
              <extension url="content">
                <valueString value="Patient à risque"/>
              </extension>
            </extension>
          </text>
          <type value="boolean"/>
          <item>
            <extension url="https://www.ehealth.fgov.be/standards/fhir/pss/StructureDefinition/CodeValueSet">
              <valueCanonical value="https://www.ehealth.fgov.be/standards/fhir/pss/ValueSet/CompromisedImmuneSystemCodes"/>
            </extension>
            <linkId value="pv_compromisedImmuneSystem"/>
            <text value="Gecompromitteerd immuunsysteem">
              <extension url="http://hl7.org/fhir/StructureDefinition/translation">
                <extension url="lang">
                  <valueCode value="fr-BE"/>
                </extension>
                <extension url="content">
                  <valueString value="Immunosuppression / système immunitaire déprimé"/>
                </extension>
              </extension>
            </text>
            <type value="boolean"/>
          </item>
          <item>
            <extension url="https://www.ehealth.fgov.be/standards/fhir/pss/StructureDefinition/CodeValueSet">
              <valueCanonical value="https://www.ehealth.fgov.be/standards/fhir/pss/ValueSet/OncologyPatientCodes"/>
            </extension>
            <linkId value="pv_oncologyPatient"/>
            <text value="Oncologische patiënt">
              <extension url="http://hl7.org/fhir/StructureDefinition/translation">
                <extension url="lang">
                  <valueCode value="fr-BE"/>
                </extension>
                <extension url="content">
                  <valueString value="Patient oncologique"/>
                </extension>
              </extension>
            </text>
            <type value="boolean"/>
          </item>
        </item>
      </Questionnaire>
    </resource>
  </entry>
  <entry>
    <fullUrl value="urn:uuid:30551ce1-5a28-4356-b684-2e639094ad48"/>
    <resource>
      <Patient>
        <id value="30551ce1-5a28-4356-b684-2e639094ad48"/>
        <meta>
          <profile value="https://www.ehealth.fgov.be/standards/fhir/pss/StructureDefinition/PSSPatient"/>
        </meta>
        <text>
          <status value="generated"/><div xmlns="http://www.w3.org/1999/xhtml"><a name="Patient_30551ce1-5a28-4356-b684-2e639094ad48"> </a><p class="res-header-id"><b>Generated Narrative: Patient 30551ce1-5a28-4356-b684-2e639094ad48</b></p><a name="30551ce1-5a28-4356-b684-2e639094ad48"> </a><a name="hc30551ce1-5a28-4356-b684-2e639094ad48"> </a><div style="display: inline-block; background-color: #d9e0e7; padding: 6px; margin: 4px; border: 1px solid #8da1b4; border-radius: 5px; line-height: 60%"><p style="margin-bottom: 0px"/><p style="margin-bottom: 0px">Profile: <a href="StructureDefinition-PSSPatient.html">PSS anonymised Patient</a></p></div><p style="border: 1px #661aff solid; background-color: #e6e6ff; padding: 10px;"> Female, DoB Unknown</p><hr/><table class="grid"><tr><td style="background-color: #f3f5da" title="Record is active">Active:</td><td>true</td><td style="background-color: #f3f5da" title="Known status of Patient">Deceased:</td><td colspan="3">false</td></tr><tr><td style="background-color: #f3f5da" title="The approximate, relevant age of the patient at the time of the search."><a href="StructureDefinition-PSSRelevantAge.html">PSS Relevant Patient Age</a></td><td colspan="3">36 y<span style="background: LightGoldenRodYellow"> (Details: UCUM  codey = 'y')</span></td></tr></table></div>
        </text>
        <extension url="https://www.ehealth.fgov.be/standards/fhir/pss/StructureDefinition/PSSRelevantAge">
          <valueAge>
            <value value="36"/>
            <system value="http://unitsofmeasure.org"/>
            <code value="y"/>
          </valueAge>
        </extension>
        <active value="true"/>
        <name>
          <extension url="http://hl7.org/fhir/StructureDefinition/data-absent-reason">
            <valueCode value="masked"/>
          </extension>
        </name>
        <gender value="female"/>
        <deceasedBoolean value="false"/>
      </Patient>
    </resource>
  </entry>
</Bundle>