{
  "resourceType" : "Bundle",
  "id" : "getdatatocollect-a-return",
  "type" : "collection",
  "entry" : [{
    "fullUrl" : "urn:uuid:30551ce1-5a28-4356-b684-2e639094ad4d",
    "resource" : {
      "resourceType" : "RequestGroup",
      "id" : "getdatatocollect-a-return-group",
      "text" : {
        "status" : "generated",
        "div" : "<div xmlns=\"http://www.w3.org/1999/xhtml\"><a name=\"RequestGroup_getdatatocollect-a-return-group\"> </a><p class=\"res-header-id\"><b>Generated Narrative: RequestGroup getdatatocollect-a-return-group</b></p><a name=\"getdatatocollect-a-return-group\"> </a><a name=\"hcgetdatatocollect-a-return-group\"> </a><a name=\"getdatatocollect-a-return-group-en-US\"> </a><p><b>status</b>: Active</p><p><b>intent</b>: Proposal</p><p><b>subject</b>: <a href=\"Patient-patient-v.html\">Anonymous Patient Female, DoB: 1988-10-10</a></p><h3>Actions</h3><table class=\"grid\"><tr><td style=\"display: none\">-</td><td><b>TextEquivalent</b></td><td><b>Resource</b></td></tr><tr><td style=\"display: none\">*</td><td>Collect information</td><td><a href=\"Task-collect-information-a.html\">Task Collect information</a></td></tr></table></div>"
      },
      "status" : "active",
      "intent" : "proposal",
      "subject" : {
        "reference" : "Patient/patient-v"
      },
      "action" : [{
        "textEquivalent" : "Collect information",
        "resource" : {
          "reference" : "Task/collect-information-a"
        }
      }]
    }
  },
  {
    "fullUrl" : "urn:uuid:30551ce1-5a28-4356-b684-11ef43a67755",
    "resource" : {
      "resourceType" : "Task",
      "id" : "collect-information-a",
      "text" : {
        "status" : "generated",
        "div" : "<div xmlns=\"http://www.w3.org/1999/xhtml\"><a name=\"Task_collect-information-a\"> </a><p class=\"res-header-id\"><b>Generated Narrative: Task collect-information-a</b></p><a name=\"collect-information-a\"> </a><a name=\"hccollect-information-a\"> </a><a name=\"collect-information-a-en-US\"> </a><p><b>status</b>: Requested</p><p><b>intent</b>: proposal</p><p><b>code</b>: <span title=\"Codes:{http://hl7.org/fhir/uv/cpg/CodeSystem/cpg-activity-type-cs collect-information}\">Collect information</span></p><p><b>for</b>: <a href=\"Patient-patient-x.html\">Anonymous Patient Female, DoB: 1989-09-12</a></p><h3>Inputs</h3><table class=\"grid\"><tr><td style=\"display: none\">-</td><td><b>Type</b></td><td><b>Value[x]</b></td></tr><tr><td style=\"display: none\">*</td><td><span title=\"Codes:{http://hl7.org/fhir/uv/cpg/CodeSystem/cpg-activity-type-cs collect-information}\">Collect information</span></td><td><a href=\"Questionnaire-q-collect-information-a.html\">q-collect-information-a</a></td></tr></table></div>"
      },
      "status" : "requested",
      "intent" : "proposal",
      "code" : {
        "coding" : [{
          "system" : "http://hl7.org/fhir/uv/cpg/CodeSystem/cpg-activity-type-cs",
          "code" : "collect-information",
          "display" : "Collect information"
        }]
      },
      "for" : {
        "reference" : "Patient/patient-x"
      },
      "input" : [{
        "type" : {
          "coding" : [{
            "system" : "http://hl7.org/fhir/uv/cpg/CodeSystem/cpg-activity-type-cs",
            "code" : "collect-information",
            "display" : "Collect information"
          }]
        },
        "valueReference" : {
          "reference" : "https://www.ehealth.fgov.be/standards/fhir/medication/Questionnaire/q-collect-information-a"
        }
      }]
    }
  },
  {
    "fullUrl" : "urn:uuid:30551ce1-5a28-4356-b684-2e639094ad4c",
    "resource" : {
      "resourceType" : "Questionnaire",
      "id" : "q-collect-information-a",
      "text" : {
        "status" : "generated",
        "div" : "<div xmlns=\"http://www.w3.org/1999/xhtml\"><a name=\"Questionnaire_q-collect-information-a\"> </a><p class=\"res-header-id\"><b>Generated Narrative: Questionnaire q-collect-information-a</b></p><a name=\"q-collect-information-a\"> </a><a name=\"hcq-collect-information-a\"> </a><a name=\"q-collect-information-a-en-US\"> </a><table border=\"1\" cellpadding=\"0\" cellspacing=\"0\" style=\"border: 1px #F0F0F0 solid; font-size: 11px; font-family: verdana; vertical-align: top;\"><tr style=\"border: 2px #F0F0F0 solid; font-size: 11px; font-family: verdana; vertical-align: top\"><th style=\"vertical-align: top; text-align : left; background-color: white; border: 1px #F0F0F0 solid; padding:0px 4px 0px 4px; padding-top: 3px; padding-bottom: 3px\" class=\"hierarchy\"><a href=\"http://hl7.org/fhir/R4/formats.html#table\" title=\"The linkID for the item\">LinkID</a></th><th style=\"vertical-align: top; text-align : left; background-color: white; border: 1px #F0F0F0 solid; padding:0px 4px 0px 4px; padding-top: 3px; padding-bottom: 3px\" class=\"hierarchy\"><a href=\"http://hl7.org/fhir/R4/formats.html#table\" title=\"Text for the item\">Text</a></th><th style=\"vertical-align: top; text-align : left; background-color: white; border: 1px #F0F0F0 solid; padding:0px 4px 0px 4px; padding-top: 3px; padding-bottom: 3px\" class=\"hierarchy\"><a href=\"http://hl7.org/fhir/R4/formats.html#table\" title=\"Minimum and Maximum # of times the item can appear in the instance\">Cardinality</a></th><th style=\"vertical-align: top; text-align : left; background-color: white; border: 1px #F0F0F0 solid; padding:0px 4px 0px 4px; padding-top: 3px; padding-bottom: 3px\" class=\"hierarchy\"><a href=\"http://hl7.org/fhir/R4/formats.html#table\" title=\"The type of the item\">Type</a></th><th style=\"vertical-align: top; text-align : left; background-color: white; border: 1px #F0F0F0 solid; padding:0px 4px 0px 4px; padding-top: 3px; padding-bottom: 3px\" class=\"hierarchy\"><a href=\"http://hl7.org/fhir/R4/formats.html#table\" title=\"Additional information about the item\">Description &amp; Constraints</a><span style=\"float: right\"><a href=\"http://hl7.org/fhir/R4/formats.html#table\" title=\"Legend for this format\"><img src=\"data:image/png;base64,\" alt=\"doco\" style=\"background-color: inherit\"/></a></span></th></tr><tr style=\"border: 1px #F0F0F0 solid; padding:0px; vertical-align: top; background-color: white\"><td style=\"vertical-align: top; text-align : left; background-color: white; border: 1px #F0F0F0 solid; padding:0px 4px 0px 4px; white-space: nowrap; background-image: url(tbl_bck1.png)\" class=\"hierarchy\"><img src=\"tbl_spacer.png\" alt=\".\" style=\"background-color: inherit\" class=\"hierarchy\"/><img src=\"icon_q_root.gif\" alt=\".\" style=\"background-color: white; background-color: inherit\" title=\"QuestionnaireRoot\" class=\"hierarchy\"/> </td><td style=\"vertical-align: top; text-align : left; background-color: white; border: 1px #F0F0F0 solid; padding:0px 4px 0px 4px\" class=\"hierarchy\"/><td style=\"vertical-align: top; text-align : left; background-color: white; border: 1px #F0F0F0 solid; padding:0px 4px 0px 4px\" class=\"hierarchy\"></td><td style=\"vertical-align: top; text-align : left; background-color: white; border: 1px #F0F0F0 solid; padding:0px 4px 0px 4px\" class=\"hierarchy\">Questionnaire</td><td style=\"vertical-align: top; text-align : left; background-color: white; border: 1px #F0F0F0 solid; padding:0px 4px 0px 4px\" class=\"hierarchy\"></td></tr>\r\n<tr style=\"border: 1px #F0F0F0 solid; padding:0px; vertical-align: top; background-color: #F7F7F7\"><td style=\"vertical-align: top; text-align : left; background-color: #F7F7F7; border: 1px #F0F0F0 solid; padding:0px 4px 0px 4px; white-space: nowrap; background-image: url(tbl_bck10.png)\" id=\"item.conditions\" class=\"hierarchy\"><img src=\"tbl_spacer.png\" alt=\".\" style=\"background-color: inherit\" class=\"hierarchy\"/><img src=\"tbl_vjoin.png\" alt=\".\" style=\"background-color: inherit\" class=\"hierarchy\"/><img src=\"icon-q-choice.png\" alt=\".\" style=\"background-color: #F7F7F7; background-color: inherit\" title=\"choice\" class=\"hierarchy\"/> conditions</td><td style=\"vertical-align: top; text-align : left; background-color: #F7F7F7; border: 1px #F0F0F0 solid; padding:0px 4px 0px 4px\" class=\"hierarchy\">Which conditions are you considering?</td><td style=\"vertical-align: top; text-align : left; background-color: #F7F7F7; border: 1px #F0F0F0 solid; padding:0px 4px 0px 4px\" class=\"hierarchy\">0..*</td><td style=\"vertical-align: top; text-align : left; background-color: #F7F7F7; border: 1px #F0F0F0 solid; padding:0px 4px 0px 4px\" class=\"hierarchy\"><a href=\"http://hl7.org/fhir/R4/codesystem-item-type.html#item-type-choice\">choice</a></td><td style=\"vertical-align: top; text-align : left; background-color: #F7F7F7; border: 1px #F0F0F0 solid; padding:0px 4px 0px 4px\" class=\"hierarchy\">Value Set: ValueSet Antimicrobiology - Vaginitis-related conditions</td></tr>\r\n<tr style=\"border: 1px #F0F0F0 solid; padding:0px; vertical-align: top; background-color: white\"><td style=\"vertical-align: top; text-align : left; background-color: white; border: 1px #F0F0F0 solid; padding:0px 4px 0px 4px; white-space: nowrap; background-image: url(tbl_bck10.png)\" id=\"item.pregnancy\" class=\"hierarchy\"><img src=\"tbl_spacer.png\" alt=\".\" style=\"background-color: inherit\" class=\"hierarchy\"/><img src=\"tbl_vjoin.png\" alt=\".\" style=\"background-color: inherit\" class=\"hierarchy\"/><img src=\"icon-q-boolean.png\" alt=\".\" style=\"background-color: white; background-color: inherit\" title=\"boolean\" class=\"hierarchy\"/> pregnancy</td><td style=\"vertical-align: top; text-align : left; background-color: white; border: 1px #F0F0F0 solid; padding:0px 4px 0px 4px\" class=\"hierarchy\">Is the patient pregnant?</td><td style=\"vertical-align: top; text-align : left; background-color: white; border: 1px #F0F0F0 solid; padding:0px 4px 0px 4px\" class=\"hierarchy\">0..1</td><td style=\"vertical-align: top; text-align : left; background-color: white; border: 1px #F0F0F0 solid; padding:0px 4px 0px 4px\" class=\"hierarchy\"><a href=\"http://hl7.org/fhir/R4/codesystem-item-type.html#item-type-boolean\">boolean</a></td><td style=\"vertical-align: top; text-align : left; background-color: white; border: 1px #F0F0F0 solid; padding:0px 4px 0px 4px\" class=\"hierarchy\"/></tr>\r\n<tr style=\"border: 1px #F0F0F0 solid; padding:0px; vertical-align: top; background-color: #F7F7F7\"><td style=\"vertical-align: top; text-align : left; background-color: #F7F7F7; border: 1px #F0F0F0 solid; padding:0px 4px 0px 4px; white-space: nowrap; background-image: url(tbl_bck00.png)\" id=\"item.recurrent\" class=\"hierarchy\"><img src=\"tbl_spacer.png\" alt=\".\" style=\"background-color: inherit\" class=\"hierarchy\"/><img src=\"tbl_vjoin_end.png\" alt=\".\" style=\"background-color: inherit\" class=\"hierarchy\"/><img src=\"icon-q-boolean.png\" alt=\".\" style=\"background-color: #F7F7F7; background-color: inherit\" title=\"boolean\" class=\"hierarchy\"/> recurrent</td><td style=\"vertical-align: top; text-align : left; background-color: #F7F7F7; border: 1px #F0F0F0 solid; padding:0px 4px 0px 4px\" class=\"hierarchy\">Recurrent?</td><td style=\"vertical-align: top; text-align : left; background-color: #F7F7F7; border: 1px #F0F0F0 solid; padding:0px 4px 0px 4px\" class=\"hierarchy\">0..1</td><td style=\"vertical-align: top; text-align : left; background-color: #F7F7F7; border: 1px #F0F0F0 solid; padding:0px 4px 0px 4px\" class=\"hierarchy\"><a href=\"http://hl7.org/fhir/R4/codesystem-item-type.html#item-type-boolean\">boolean</a></td><td style=\"vertical-align: top; text-align : left; background-color: #F7F7F7; border: 1px #F0F0F0 solid; padding:0px 4px 0px 4px\" class=\"hierarchy\"/></tr>\r\n<tr><td colspan=\"5\" class=\"hierarchy\"><br/><a href=\"http://hl7.org/fhir/R4/formats.html#table\" title=\"Legend for this format\"><img src=\"data:image/png;base64,\" alt=\"doco\" style=\"background-color: inherit\"/> Documentation for this format</a></td></tr></table><h2>Contained Resources</h2><hr/><p class=\"res-header-id\"><b>ValueSet #condition-valueset</b></p><a name=\"q-collect-information-a/condition-valueset\"> </a><a name=\"hcq-collect-information-a/condition-valueset\"> </a><a name=\"q-collect-information-a/condition-valueset-en-US\"> </a><p><b>name</b>: Conditions</p><p><b>title</b>: Antimicrobiology - Vaginitis-related conditions</p><p><b>status</b>: Active</p><p><b>experimental</b>: false</p><p><b>description</b>: </p><div><p>Antimicrobiology - S2 Get data to collect - Response - 1.4. ValueSet</p>\n</div><blockquote><p><b>expansion</b></p><p><b>timestamp</b>: 2015-06-22 13:56:07+0000</p><blockquote><p><b>contains</b></p><p><b>system</b>: <a href=\"https://browser.ihtsdotools.org/\">http://snomed.info/sct</a></p><p><b>code</b>: 419760006</p><p><b>display</b>: Bacterial vaginosis</p></blockquote><blockquote><p><b>contains</b></p><p><b>system</b>: <a href=\"https://browser.ihtsdotools.org/\">http://snomed.info/sct</a></p><p><b>code</b>: 276877003</p><p><b>display</b>: Trichomonal vaginitis</p></blockquote><blockquote><p><b>contains</b></p><p><b>system</b>: <a href=\"https://browser.ihtsdotools.org/\">http://snomed.info/sct</a></p><p><b>code</b>: 72934000</p><p><b>display</b>: Candidiasis of vagina</p></blockquote></blockquote><hr/><p class=\"res-header-id\"><b>ValueSet #PregnancyCodes</b></p><a name=\"q-collect-information-a/PregnancyCodes\"> </a><a name=\"hcq-collect-information-a/PregnancyCodes\"> </a><a name=\"q-collect-information-a/PregnancyCodes-en-US\"> </a><p><b>url</b>: <a href=\"ValueSet-PregnancyCodes.html\">Pregnancy Codes</a></p><p><b>name</b>: PregnancyCodes</p><p><b>title</b>: Pregnancy Codes</p><p><b>status</b>: Active</p><p><b>description</b>: </p><div><p>Pregnancy Codes</p>\n</div><blockquote><p><b>compose</b></p><blockquote><p><b>include</b></p><p><b>system</b>: <a href=\"http://terminology.hl7.org/6.1.0/CodeSystem-icd10.html\">http://hl7.org/fhir/sid/icd-10</a></p><h3>Concepts</h3><table class=\"grid\"><tr><td style=\"display: none\">-</td><td><b>Code</b></td></tr><tr><td style=\"display: none\">*</td><td>Z33.1</td></tr></table></blockquote><blockquote><p><b>include</b></p><p><b>system</b>: <a href=\"https://browser.ihtsdotools.org/\">http://snomed.info/sct</a></p><blockquote><p><b>concept</b></p><p><b>code</b>: 87527008</p></blockquote><blockquote><p><b>concept</b></p><p><b>code</b>: 127364007</p></blockquote><blockquote><p><b>concept</b></p><p><b>code</b>: 72892002</p></blockquote></blockquote></blockquote></div>"
      },
      "contained" : [{
        "resourceType" : "ValueSet",
        "id" : "condition-valueset",
        "name" : "Conditions",
        "title" : "Antimicrobiology - Vaginitis-related conditions",
        "status" : "active",
        "experimental" : false,
        "description" : "Antimicrobiology - S2 Get data to collect - Response - 1.4. ValueSet",
        "expansion" : {
          "timestamp" : "2015-06-22T13:56:07Z",
          "contains" : [{
            "system" : "http://snomed.info/sct",
            "code" : "419760006",
            "display" : "Bacterial vaginosis"
          },
          {
            "system" : "http://snomed.info/sct",
            "code" : "276877003",
            "display" : "Trichomonal vaginitis"
          },
          {
            "system" : "http://snomed.info/sct",
            "code" : "72934000",
            "display" : "Candidiasis of vagina"
          }]
        }
      },
      {
        "resourceType" : "ValueSet",
        "id" : "PregnancyCodes",
        "url" : "https://www.ehealth.fgov.be/standards/fhir/medication/ValueSet/PregnancyCodes",
        "name" : "PregnancyCodes",
        "title" : "Pregnancy Codes",
        "status" : "active",
        "description" : "Pregnancy Codes",
        "compose" : {
          "include" : [{
            "system" : "http://hl7.org/fhir/sid/icd-10",
            "concept" : [{
              "code" : "Z33.1"
            }]
          },
          {
            "system" : "http://snomed.info/sct",
            "concept" : [{
              "code" : "87527008"
            },
            {
              "code" : "127364007"
            },
            {
              "code" : "72892002"
            }]
          }]
        }
      }],
      "status" : "active",
      "item" : [{
        "linkId" : "conditions",
        "text" : "Which conditions are you considering?",
        "type" : "choice",
        "repeats" : true,
        "answerValueSet" : "#condition-valueset"
      },
      {
        "extension" : [{
          "url" : "https://www.ehealth.fgov.be/standards/fhir/medication/StructureDefinition/codeValueSet",
          "valueCanonical" : "#PregnancyCodes"
        }],
        "linkId" : "pregnancy",
        "code" : [{
          "system" : "http://hl7.org/fhir/sid/icd-10",
          "code" : "Z88.0"
        }],
        "text" : "Is the patient pregnant?",
        "type" : "boolean"
      },
      {
        "linkId" : "recurrent",
        "code" : [{
          "system" : "http://snomed.info/sct",
          "code" : "708126004"
        }],
        "text" : "Recurrent?",
        "type" : "boolean"
      }]
    }
  },
  {
    "fullUrl" : "urn:uuid:30551ce1-5a28-4356-b684-2e639094adff",
    "resource" : {
      "resourceType" : "Patient",
      "id" : "patient-v",
      "text" : {
        "status" : "generated",
        "div" : "<div xmlns=\"http://www.w3.org/1999/xhtml\"><a name=\"Patient_patient-v\"> </a><p class=\"res-header-id\"><b>Generated Narrative: Patient patient-v</b></p><a name=\"patient-v\"> </a><a name=\"hcpatient-v\"> </a><a name=\"patient-v-en-US\"> </a><p style=\"border: 1px #661aff solid; background-color: #e6e6ff; padding: 10px;\">Anonymous Patient Female, DoB: 1988-10-10</p><hr/><table class=\"grid\"><tr><td style=\"background-color: #f3f5da\" title=\"Record is active\">Active:</td><td>true</td><td style=\"background-color: #f3f5da\" title=\"Known status of Patient\">Deceased:</td><td colspan=\"3\">false</td></tr></table></div>"
      },
      "active" : true,
      "gender" : "female",
      "birthDate" : "1988-10-10",
      "deceasedBoolean" : false
    }
  }]
}