{
  "resourceType" : "Bundle",
  "id" : "getdatatocollect-a-return",
  "meta" : {
    "profile" : ["https://www.ehealth.fgov.be/standards/fhir/pss/StructureDefinition/PSSResponseBundle"]
  },
  "identifier" : {
    "value" : "response1"
  },
  "type" : "collection",
  "timestamp" : "2025-02-20T00:00:00Z",
  "entry" : [{
    "fullUrl" : "urn:uuid:30551ce1-5a28-4356-b684-2e639094ad4d",
    "resource" : {
      "resourceType" : "RequestGroup",
      "id" : "getdatatocollect-a-return-group",
      "text" : {
        "status" : "generated",
        "div" : "<div xmlns=\"http://www.w3.org/1999/xhtml\"><a name=\"RequestGroup_getdatatocollect-a-return-group\"> </a><p class=\"res-header-id\"><b>Generated Narrative: RequestGroup getdatatocollect-a-return-group</b></p><a name=\"getdatatocollect-a-return-group\"> </a><a name=\"hcgetdatatocollect-a-return-group\"> </a><a name=\"getdatatocollect-a-return-group-en-US\"> </a><p><b>status</b>: Active</p><p><b>intent</b>: Proposal</p><p><b>subject</b>: <a href=\"Patient-patient-a.html\"> Female, DoB Unknown</a></p><blockquote><p><b>action</b></p><p><b>selectionBehavior</b>: At Most One</p><h3>Actions</h3><table class=\"grid\"><tr><td style=\"display: none\">-</td><td><b>TextEquivalent</b></td><td><b>Resource</b></td></tr><tr><td style=\"display: none\">*</td><td>Collect information</td><td><a href=\"Task-collect-information-a.html\">Task Collect information</a></td></tr></table></blockquote></div>"
      },
      "status" : "active",
      "intent" : "proposal",
      "subject" : {
        "reference" : "Patient/patient-a"
      },
      "action" : [{
        "selectionBehavior" : "at-most-one",
        "action" : [{
          "textEquivalent" : "Collect information",
          "resource" : {
            "reference" : "Task/collect-information-a"
          }
        }]
      }]
    }
  },
  {
    "fullUrl" : "urn:uuid:30551ce1-5a28-4356-b684-11ef43a67755",
    "resource" : {
      "resourceType" : "Task",
      "id" : "collect-information-a",
      "text" : {
        "status" : "generated",
        "div" : "<div xmlns=\"http://www.w3.org/1999/xhtml\"><a name=\"Task_collect-information-a\"> </a><p class=\"res-header-id\"><b>Generated Narrative: Task collect-information-a</b></p><a name=\"collect-information-a\"> </a><a name=\"hccollect-information-a\"> </a><a name=\"collect-information-a-en-US\"> </a><p><b>status</b>: Requested</p><p><b>intent</b>: proposal</p><p><b>code</b>: <span title=\"Codes:{http://hl7.org/fhir/uv/cpg/CodeSystem/cpg-activity-type-cs collect-information}\">Collect information</span></p><p><b>for</b>: <a href=\"Patient-patient-a.html\"> Female, DoB Unknown</a></p><h3>Inputs</h3><table class=\"grid\"><tr><td style=\"display: none\">-</td><td><b>Type</b></td><td><b>Value[x]</b></td></tr><tr><td style=\"display: none\">*</td><td><span title=\"Codes:{http://hl7.org/fhir/uv/cpg/CodeSystem/cpg-activity-type-cs collect-information}\">Collect information</span></td><td><a href=\"Questionnaire-q-collect-information-a.html\">q-collect-information-a</a></td></tr></table></div>"
      },
      "status" : "requested",
      "intent" : "proposal",
      "code" : {
        "coding" : [{
          "system" : "http://hl7.org/fhir/uv/cpg/CodeSystem/cpg-activity-type-cs",
          "code" : "collect-information",
          "display" : "Collect information"
        }]
      },
      "for" : {
        "reference" : "Patient/patient-a"
      },
      "input" : [{
        "type" : {
          "coding" : [{
            "system" : "http://hl7.org/fhir/uv/cpg/CodeSystem/cpg-activity-type-cs",
            "code" : "collect-information",
            "display" : "Collect information"
          }]
        },
        "valueReference" : {
          "reference" : "https://www.ehealth.fgov.be/standards/fhir/pss/Questionnaire/q-collect-information-a"
        }
      }]
    }
  },
  {
    "fullUrl" : "urn:uuid:30551ce1-5a28-4356-b684-2e639094ad4c",
    "resource" : {
      "resourceType" : "Questionnaire",
      "id" : "q-collect-information-a",
      "meta" : {
        "profile" : ["https://www.ehealth.fgov.be/standards/fhir/pss/StructureDefinition/PSSDataAcquisitionForm"]
      },
      "language" : "nl-BE",
      "text" : {
        "status" : "generated",
        "div" : "<div xmlns=\"http://www.w3.org/1999/xhtml\" xml:lang=\"nl-BE\" lang=\"nl-BE\"><a name=\"Questionnaire_q-collect-information-a\"> </a><p class=\"res-header-id\"><b>Generated Narrative: Questionnaire q-collect-information-a</b></p><a name=\"q-collect-information-a\"> </a><a name=\"hcq-collect-information-a\"> </a><a name=\"q-collect-information-a-en-US\"> </a><div style=\"display: inline-block; background-color: #d9e0e7; padding: 6px; margin: 4px; border: 1px solid #8da1b4; border-radius: 5px; line-height: 60%\"><p style=\"margin-bottom: 0px\">Language: nl-BE</p><p style=\"margin-bottom: 0px\">Profile: <a href=\"StructureDefinition-PSSDataAcquisitionForm.html\">PSS Data Acquisition Form</a></p></div><table border=\"1\" cellpadding=\"0\" cellspacing=\"0\" style=\"border: 1px #F0F0F0 solid; font-size: 11px; font-family: verdana; vertical-align: top;\"><tr style=\"border: 2px #F0F0F0 solid; font-size: 11px; font-family: verdana; vertical-align: top\"><th style=\"vertical-align: top; text-align : left; background-color: white; border: 1px #F0F0F0 solid; padding:0px 4px 0px 4px; padding-top: 3px; padding-bottom: 3px\" class=\"hierarchy\"><a href=\"http://hl7.org/fhir/R4/formats.html#table\" title=\"The linkID for the item\">LinkID</a></th><th style=\"vertical-align: top; text-align : left; background-color: white; border: 1px #F0F0F0 solid; padding:0px 4px 0px 4px; padding-top: 3px; padding-bottom: 3px\" class=\"hierarchy\"><a href=\"http://hl7.org/fhir/R4/formats.html#table\" title=\"Text for the item\">Text</a></th><th style=\"vertical-align: top; text-align : left; background-color: white; border: 1px #F0F0F0 solid; padding:0px 4px 0px 4px; padding-top: 3px; padding-bottom: 3px\" class=\"hierarchy\"><a href=\"http://hl7.org/fhir/R4/formats.html#table\" title=\"Minimum and Maximum # of times the item can appear in the instance\">Cardinality</a></th><th style=\"vertical-align: top; text-align : left; background-color: white; border: 1px #F0F0F0 solid; padding:0px 4px 0px 4px; padding-top: 3px; padding-bottom: 3px\" class=\"hierarchy\"><a href=\"http://hl7.org/fhir/R4/formats.html#table\" title=\"The type of the item\">Type</a></th><th style=\"vertical-align: top; text-align : left; background-color: white; border: 1px #F0F0F0 solid; padding:0px 4px 0px 4px; padding-top: 3px; padding-bottom: 3px\" class=\"hierarchy\"><a href=\"http://hl7.org/fhir/R4/formats.html#table\" title=\"Additional information about the item\">Description &amp; Constraints</a><span style=\"float: right\"><a href=\"http://hl7.org/fhir/R4/formats.html#table\" title=\"Legend for this format\"><img src=\"data:image/png;base64,\" alt=\"doco\" style=\"background-color: inherit\"/></a></span></th></tr><tr style=\"border: 1px #F0F0F0 solid; padding:0px; vertical-align: top; background-color: white\"><td style=\"vertical-align: top; text-align : left; background-color: white; border: 1px #F0F0F0 solid; padding:0px 4px 0px 4px; white-space: nowrap; background-image: url(tbl_bck1.png)\" class=\"hierarchy\"><img src=\"tbl_spacer.png\" alt=\".\" style=\"background-color: inherit\" class=\"hierarchy\"/><img src=\"icon_q_root.gif\" alt=\".\" style=\"background-color: white; background-color: inherit\" title=\"QuestionnaireRoot\" class=\"hierarchy\"/> </td><td style=\"vertical-align: top; text-align : left; background-color: white; border: 1px #F0F0F0 solid; padding:0px 4px 0px 4px\" class=\"hierarchy\"/><td style=\"vertical-align: top; text-align : left; background-color: white; border: 1px #F0F0F0 solid; padding:0px 4px 0px 4px\" class=\"hierarchy\"></td><td style=\"vertical-align: top; text-align : left; background-color: white; border: 1px #F0F0F0 solid; padding:0px 4px 0px 4px\" class=\"hierarchy\">Questionnaire</td><td style=\"vertical-align: top; text-align : left; background-color: white; border: 1px #F0F0F0 solid; padding:0px 4px 0px 4px\" class=\"hierarchy\"></td></tr>\r\n<tr style=\"border: 1px #F0F0F0 solid; padding:0px; vertical-align: top; background-color: #F7F7F7\"><td style=\"vertical-align: top; text-align : left; background-color: #F7F7F7; border: 1px #F0F0F0 solid; padding:0px 4px 0px 4px; white-space: nowrap; background-image: url(tbl_bck10.png)\" id=\"item.conditions\" class=\"hierarchy\"><img src=\"tbl_spacer.png\" alt=\".\" style=\"background-color: inherit\" class=\"hierarchy\"/><img src=\"tbl_vjoin.png\" alt=\".\" style=\"background-color: inherit\" class=\"hierarchy\"/><img src=\"icon-q-choice.png\" alt=\".\" style=\"background-color: #F7F7F7; background-color: inherit\" title=\"choice\" class=\"hierarchy\"/> conditions</td><td style=\"vertical-align: top; text-align : left; background-color: #F7F7F7; border: 1px #F0F0F0 solid; padding:0px 4px 0px 4px\" class=\"hierarchy\">Which conditions are you considering?</td><td style=\"vertical-align: top; text-align : left; background-color: #F7F7F7; border: 1px #F0F0F0 solid; padding:0px 4px 0px 4px\" class=\"hierarchy\">0..*</td><td style=\"vertical-align: top; text-align : left; background-color: #F7F7F7; border: 1px #F0F0F0 solid; padding:0px 4px 0px 4px\" class=\"hierarchy\"><a href=\"http://hl7.org/fhir/R4/codesystem-item-type.html#item-type-choice\">choice</a></td><td style=\"vertical-align: top; text-align : left; background-color: #F7F7F7; border: 1px #F0F0F0 solid; padding:0px 4px 0px 4px\" class=\"hierarchy\">Value Set: ValueSet Antimicrobiology - Vaginitis-related conditions</td></tr>\r\n<tr style=\"border: 1px #F0F0F0 solid; padding:0px; vertical-align: top; background-color: white\"><td style=\"vertical-align: top; text-align : left; background-color: white; border: 1px #F0F0F0 solid; padding:0px 4px 0px 4px; white-space: nowrap; background-image: url(tbl_bck10.png)\" id=\"item.pregnancy\" class=\"hierarchy\"><img src=\"tbl_spacer.png\" alt=\".\" style=\"background-color: inherit\" class=\"hierarchy\"/><img src=\"tbl_vjoin.png\" alt=\".\" style=\"background-color: inherit\" class=\"hierarchy\"/><img src=\"icon-q-boolean.png\" alt=\".\" style=\"background-color: white; background-color: inherit\" title=\"boolean\" class=\"hierarchy\"/> pregnancy</td><td style=\"vertical-align: top; text-align : left; background-color: white; border: 1px #F0F0F0 solid; padding:0px 4px 0px 4px\" class=\"hierarchy\">Is the patient pregnant?</td><td style=\"vertical-align: top; text-align : left; background-color: white; border: 1px #F0F0F0 solid; padding:0px 4px 0px 4px\" class=\"hierarchy\">0..1</td><td style=\"vertical-align: top; text-align : left; background-color: white; border: 1px #F0F0F0 solid; padding:0px 4px 0px 4px\" class=\"hierarchy\"><a href=\"http://hl7.org/fhir/R4/codesystem-item-type.html#item-type-boolean\">boolean</a></td><td style=\"vertical-align: top; text-align : left; background-color: white; border: 1px #F0F0F0 solid; padding:0px 4px 0px 4px\" class=\"hierarchy\"/></tr>\r\n<tr style=\"border: 1px #F0F0F0 solid; padding:0px; vertical-align: top; background-color: #F7F7F7\"><td style=\"vertical-align: top; text-align : left; background-color: #F7F7F7; border: 1px #F0F0F0 solid; padding:0px 4px 0px 4px; white-space: nowrap; background-image: url(tbl_bck10.png)\" id=\"item.recurrent\" class=\"hierarchy\"><img src=\"tbl_spacer.png\" alt=\".\" style=\"background-color: inherit\" class=\"hierarchy\"/><img src=\"tbl_vjoin.png\" alt=\".\" style=\"background-color: inherit\" class=\"hierarchy\"/><img src=\"icon-q-boolean.png\" alt=\".\" style=\"background-color: #F7F7F7; background-color: inherit\" title=\"boolean\" class=\"hierarchy\"/> recurrent</td><td style=\"vertical-align: top; text-align : left; background-color: #F7F7F7; border: 1px #F0F0F0 solid; padding:0px 4px 0px 4px\" class=\"hierarchy\">Recurrent?</td><td style=\"vertical-align: top; text-align : left; background-color: #F7F7F7; border: 1px #F0F0F0 solid; padding:0px 4px 0px 4px\" class=\"hierarchy\">0..1</td><td style=\"vertical-align: top; text-align : left; background-color: #F7F7F7; border: 1px #F0F0F0 solid; padding:0px 4px 0px 4px\" class=\"hierarchy\"><a href=\"http://hl7.org/fhir/R4/codesystem-item-type.html#item-type-boolean\">boolean</a></td><td style=\"vertical-align: top; text-align : left; background-color: #F7F7F7; border: 1px #F0F0F0 solid; padding:0px 4px 0px 4px\" class=\"hierarchy\"/></tr>\r\n<tr style=\"border: 1px #F0F0F0 solid; padding:0px; vertical-align: top; background-color: white\"><td style=\"vertical-align: top; text-align : left; background-color: white; border: 1px #F0F0F0 solid; padding:0px 4px 0px 4px; white-space: nowrap; background-image: url(tbl_bck10.png)\" id=\"item.known_pathogen\" class=\"hierarchy\"><img src=\"tbl_spacer.png\" alt=\".\" style=\"background-color: inherit\" class=\"hierarchy\"/><img src=\"tbl_vjoin.png\" alt=\".\" style=\"background-color: inherit\" class=\"hierarchy\"/><img src=\"icon-q-boolean.png\" alt=\".\" style=\"background-color: white; background-color: inherit\" title=\"boolean\" class=\"hierarchy\"/> known_pathogen</td><td style=\"vertical-align: top; text-align : left; background-color: white; border: 1px #F0F0F0 solid; padding:0px 4px 0px 4px\" class=\"hierarchy\">Known Pathogen?</td><td style=\"vertical-align: top; text-align : left; background-color: white; border: 1px #F0F0F0 solid; padding:0px 4px 0px 4px\" class=\"hierarchy\">0..1</td><td style=\"vertical-align: top; text-align : left; background-color: white; border: 1px #F0F0F0 solid; padding:0px 4px 0px 4px\" class=\"hierarchy\"><a href=\"http://hl7.org/fhir/R4/codesystem-item-type.html#item-type-boolean\">boolean</a></td><td style=\"vertical-align: top; text-align : left; background-color: white; border: 1px #F0F0F0 solid; padding:0px 4px 0px 4px\" class=\"hierarchy\"/></tr>\r\n<tr style=\"border: 1px #F0F0F0 solid; padding:0px; vertical-align: top; background-color: #F7F7F7\"><td style=\"vertical-align: top; text-align : left; background-color: #F7F7F7; border: 1px #F0F0F0 solid; padding:0px 4px 0px 4px; white-space: nowrap; background-image: url(tbl_bck10.png)\" id=\"item.pathogen\" class=\"hierarchy\"><img src=\"tbl_spacer.png\" alt=\".\" style=\"background-color: inherit\" class=\"hierarchy\"/><img src=\"tbl_vjoin.png\" alt=\".\" style=\"background-color: inherit\" class=\"hierarchy\"/><img src=\"icon-q-choice.png\" alt=\".\" style=\"background-color: #F7F7F7; background-color: inherit\" title=\"choice\" class=\"hierarchy\"/> pathogen</td><td style=\"vertical-align: top; text-align : left; background-color: #F7F7F7; border: 1px #F0F0F0 solid; padding:0px 4px 0px 4px\" class=\"hierarchy\">Pathogen - please indicate</td><td style=\"vertical-align: top; text-align : left; background-color: #F7F7F7; border: 1px #F0F0F0 solid; padding:0px 4px 0px 4px\" class=\"hierarchy\">0..1</td><td style=\"vertical-align: top; text-align : left; background-color: #F7F7F7; border: 1px #F0F0F0 solid; padding:0px 4px 0px 4px\" class=\"hierarchy\"><a href=\"http://hl7.org/fhir/R4/codesystem-item-type.html#item-type-choice\">choice</a></td><td style=\"vertical-align: top; text-align : left; background-color: #F7F7F7; border: 1px #F0F0F0 solid; padding:0px 4px 0px 4px\" class=\"hierarchy\">Enable When: <span><a href=\"#item.known_pathogen\">known_pathogen</a> = </span><br/>Value Set: <a href=\"ValueSet-PathogenicAgents.html\">Pathogenic Agents list</a></td></tr>\r\n<tr style=\"border: 1px #F0F0F0 solid; padding:0px; vertical-align: top; background-color: white\"><td style=\"vertical-align: top; text-align : left; background-color: white; border: 1px #F0F0F0 solid; padding:0px 4px 0px 4px; white-space: nowrap; background-image: url(tbl_bck00.png)\" id=\"item.pathogen2\" class=\"hierarchy\"><img src=\"tbl_spacer.png\" alt=\".\" style=\"background-color: inherit\" class=\"hierarchy\"/><img src=\"tbl_vjoin_end.png\" alt=\".\" style=\"background-color: inherit\" class=\"hierarchy\"/><img src=\"icon-q-choice.png\" alt=\".\" style=\"background-color: white; background-color: inherit\" title=\"choice\" class=\"hierarchy\"/> pathogen2</td><td style=\"vertical-align: top; text-align : left; background-color: white; border: 1px #F0F0F0 solid; padding:0px 4px 0px 4px\" class=\"hierarchy\">Pathogen - please indicate</td><td style=\"vertical-align: top; text-align : left; background-color: white; border: 1px #F0F0F0 solid; padding:0px 4px 0px 4px\" class=\"hierarchy\">0..1</td><td style=\"vertical-align: top; text-align : left; background-color: white; border: 1px #F0F0F0 solid; padding:0px 4px 0px 4px\" class=\"hierarchy\"><a href=\"http://hl7.org/fhir/R4/codesystem-item-type.html#item-type-choice\">choice</a></td><td style=\"vertical-align: top; text-align : left; background-color: white; border: 1px #F0F0F0 solid; padding:0px 4px 0px 4px\" class=\"hierarchy\"/></tr>\r\n<tr><td colspan=\"5\" class=\"hierarchy\"><br/><a href=\"http://hl7.org/fhir/R4/formats.html#table\" title=\"Legend for this format\"><img src=\"data:image/png;base64,\" alt=\"doco\" style=\"background-color: inherit\"/> Documentation for this format</a></td></tr></table><h2>Contained Resources</h2><hr/><p class=\"res-header-id\"><b>ValueSet #condition-valueset</b></p><a name=\"q-collect-information-a/condition-valueset\"> </a><a name=\"hcq-collect-information-a/condition-valueset\"> </a><a name=\"q-collect-information-a/condition-valueset-en-US\"> </a><p><b>name</b>: Conditions</p><p><b>title</b>: Antimicrobiology - Vaginitis-related conditions</p><p><b>status</b>: Active</p><p><b>experimental</b>: false</p><p><b>description</b>: </p><div><p>Antimicrobiology - S2 Get data to collect - Response - 1.4. ValueSet</p>\n</div><blockquote><p><b>expansion</b></p><p><b>timestamp</b>: 2015-06-22 13:56:07+0000</p><blockquote><p><b>contains</b></p><p><b>system</b>: <a href=\"https://browser.ihtsdotools.org/\">http://snomed.info/sct</a></p><p><b>code</b>: 419760006</p><p><b>display</b>: Bacterial vaginosis</p></blockquote><blockquote><p><b>contains</b></p><p><b>system</b>: <a href=\"https://browser.ihtsdotools.org/\">http://snomed.info/sct</a></p><p><b>code</b>: 276877003</p><p><b>display</b>: Trichomonal vaginitis</p></blockquote><blockquote><p><b>contains</b></p><p><b>system</b>: <a href=\"https://browser.ihtsdotools.org/\">http://snomed.info/sct</a></p><p><b>code</b>: 72934000</p><p><b>display</b>: Candidiasis of vagina</p></blockquote></blockquote></div>"
      },
      "contained" : [{
        "resourceType" : "ValueSet",
        "id" : "condition-valueset",
        "name" : "Conditions",
        "title" : "Antimicrobiology - Vaginitis-related conditions",
        "status" : "active",
        "experimental" : false,
        "description" : "Antimicrobiology - S2 Get data to collect - Response - 1.4. ValueSet",
        "expansion" : {
          "timestamp" : "2015-06-22T13:56:07Z",
          "contains" : [{
            "system" : "http://snomed.info/sct",
            "code" : "419760006",
            "display" : "Bacterial vaginosis"
          },
          {
            "system" : "http://snomed.info/sct",
            "code" : "276877003",
            "display" : "Trichomonal vaginitis"
          },
          {
            "system" : "http://snomed.info/sct",
            "code" : "72934000",
            "display" : "Candidiasis of vagina"
          }]
        }
      }],
      "status" : "active",
      "item" : [{
        "linkId" : "conditions",
        "text" : "Which conditions are you considering?",
        "type" : "choice",
        "repeats" : true,
        "answerValueSet" : "#condition-valueset"
      },
      {
        "extension" : [{
          "url" : "https://www.ehealth.fgov.be/standards/fhir/pss/StructureDefinition/CodeValueSet",
          "valueCanonical" : "https://www.ehealth.fgov.be/standards/fhir/pss/ValueSet/PregnancyCodes"
        }],
        "linkId" : "pregnancy",
        "code" : [{
          "system" : "http://hl7.org/fhir/sid/icd-10",
          "code" : "Z88.0"
        }],
        "text" : "Is the patient pregnant?",
        "_text" : {
          "extension" : [{
            "extension" : [{
              "url" : "lang",
              "valueCode" : "fr-BE"
            },
            {
              "url" : "content",
              "valueString" : "La patiente est enceinte?"
            }],
            "url" : "http://hl7.org/fhir/StructureDefinition/translation"
          }]
        },
        "type" : "boolean"
      },
      {
        "linkId" : "recurrent",
        "code" : [{
          "system" : "http://snomed.info/sct",
          "code" : "708126004"
        }],
        "text" : "Recurrent?",
        "type" : "boolean"
      },
      {
        "linkId" : "known_pathogen",
        "text" : "Known Pathogen?",
        "type" : "boolean"
      },
      {
        "linkId" : "pathogen",
        "text" : "Pathogen - please indicate",
        "type" : "choice",
        "enableWhen" : [{
          "question" : "known_pathogen",
          "operator" : "=",
          "answerBoolean" : true
        }],
        "answerValueSet" : "https://www.ehealth.fgov.be/standards/fhir/pss/ValueSet/PathogenicAgents"
      },
      {
        "linkId" : "pathogen2",
        "text" : "Pathogen - please indicate",
        "type" : "choice"
      }]
    }
  },
  {
    "fullUrl" : "urn:uuid:30551ce1-5a28-4356-b684-2e639094adff",
    "resource" : {
      "resourceType" : "Patient",
      "id" : "patient-a",
      "meta" : {
        "profile" : ["https://www.ehealth.fgov.be/standards/fhir/pss/StructureDefinition/PSSPatient"]
      },
      "text" : {
        "status" : "generated",
        "div" : "<div xmlns=\"http://www.w3.org/1999/xhtml\"><a name=\"Patient_patient-a\"> </a><p class=\"res-header-id\"><b>Generated Narrative: Patient patient-a</b></p><a name=\"patient-a\"> </a><a name=\"hcpatient-a\"> </a><a name=\"patient-a-en-US\"> </a><div style=\"display: inline-block; background-color: #d9e0e7; padding: 6px; margin: 4px; border: 1px solid #8da1b4; border-radius: 5px; line-height: 60%\"><p style=\"margin-bottom: 0px\"/><p style=\"margin-bottom: 0px\">Profile: <a href=\"StructureDefinition-PSSPatient.html\">PSS anonymised Patient</a></p></div><p style=\"border: 1px #661aff solid; background-color: #e6e6ff; padding: 10px;\"> Female, DoB Unknown</p><hr/><table class=\"grid\"><tr><td style=\"background-color: #f3f5da\" title=\"Record is active\">Active:</td><td>true</td><td style=\"background-color: #f3f5da\" title=\"Known status of Patient\">Deceased:</td><td colspan=\"3\">false</td></tr><tr><td style=\"background-color: #f3f5da\" title=\"The approximate, relevant age of the patient at the time of the search.\"><a href=\"StructureDefinition-PSSRelevantAge.html\">PSS Relevant Patient Age</a></td><td colspan=\"3\">36 y<span style=\"background: LightGoldenRodYellow\"> (Details: UCUM  codey = 'y')</span></td></tr></table></div>"
      },
      "extension" : [{
        "url" : "https://www.ehealth.fgov.be/standards/fhir/pss/StructureDefinition/PSSRelevantAge",
        "valueAge" : {
          "value" : 36,
          "system" : "http://unitsofmeasure.org",
          "code" : "y"
        }
      }],
      "active" : true,
      "name" : [{
        "extension" : [{
          "url" : "http://hl7.org/fhir/StructureDefinition/data-absent-reason",
          "valueCode" : "masked"
        }]
      }],
      "gender" : "female",
      "deceasedBoolean" : false
    }
  }]
}