{
  "resourceType" : "Bundle",
  "id" : "radiology-getdiagnoses-return",
  "meta" : {
    "profile" : ["https://www.ehealth.fgov.be/standards/fhir/pss/StructureDefinition/PSSResponseBundle"]
  },
  "identifier" : {
    "value" : "someidentifier"
  },
  "type" : "collection",
  "timestamp" : "2025-02-20T00:00:00Z",
  "entry" : [{
    "fullUrl" : "urn:uuid:30551ce1-5a28-4356-b684-3e639094ad08",
    "resource" : {
      "resourceType" : "RequestGroup",
      "id" : "Inline-Instance-for-radiology-getdiagnoses-return",
      "text" : {
        "status" : "generated",
        "div" : "<div xmlns=\"http://www.w3.org/1999/xhtml\"><a name=\"RequestGroup_Inline-Instance-for-radiology-getdiagnoses-return\"> </a><p class=\"res-header-id\"><b>Generated Narrative: RequestGroup Inline-Instance-for-radiology-getdiagnoses-return</b></p><a name=\"Inline-Instance-for-radiology-getdiagnoses-return\"> </a><a name=\"hcInline-Instance-for-radiology-getdiagnoses-return\"> </a><a name=\"Inline-Instance-for-radiology-getdiagnoses-return-en-US\"> </a><p><b>status</b>: Active</p><p><b>intent</b>: Proposal</p><p><b>subject</b>: <a href=\"Patient-patient-r.html\"> Male, DoB Unknown</a></p><blockquote><p><b>action</b></p><p><b>selectionBehavior</b>: At Most One</p><h3>Actions</h3><table class=\"grid\"><tr><td style=\"display: none\">-</td><td><b>TextEquivalent</b></td><td><b>Resource</b></td></tr><tr><td style=\"display: none\">*</td><td>Potential diagnosis of Stroke</td><td><a href=\"Task-propose-stroke.html\">Task Propose a diagnosis</a></td></tr><tr><td style=\"display: none\">*</td><td>Potential diagnosis of infection</td><td><a href=\"Task-propose-infection.html\">Task Propose a diagnosis</a></td></tr><tr><td style=\"display: none\">*</td><td>Potential diagnosis of Head trauma</td><td><a href=\"Task-propose-head-trauma.html\">Task Propose a diagnosis</a></td></tr><tr><td style=\"display: none\">*</td><td>Potential diagnosis of Slow progression or chronic ataxia</td><td><a href=\"Task-propose-slow-progression-ataxia.html\">Task Propose a diagnosis</a></td></tr><tr><td style=\"display: none\">*</td><td>Potential diagnosis of Post head trauma ataxia</td><td><a href=\"Task-propose-post-trauma-ataxia.html\">Task Propose a diagnosis</a></td></tr></table></blockquote></div>"
      },
      "status" : "active",
      "intent" : "proposal",
      "subject" : {
        "reference" : "Patient/patient-r"
      },
      "action" : [{
        "selectionBehavior" : "at-most-one",
        "action" : [{
          "textEquivalent" : "Potential diagnosis of Stroke",
          "resource" : {
            "reference" : "Task/propose-stroke"
          }
        },
        {
          "textEquivalent" : "Potential diagnosis of infection",
          "resource" : {
            "reference" : "Task/propose-infection"
          }
        },
        {
          "textEquivalent" : "Potential diagnosis of Head trauma",
          "resource" : {
            "reference" : "Task/propose-head-trauma"
          }
        },
        {
          "textEquivalent" : "Potential diagnosis of Slow progression or chronic ataxia",
          "resource" : {
            "reference" : "Task/propose-slow-progression-ataxia"
          }
        },
        {
          "textEquivalent" : "Potential diagnosis of Post head trauma ataxia",
          "resource" : {
            "reference" : "Task/propose-post-trauma-ataxia"
          }
        }]
      }]
    }
  },
  {
    "fullUrl" : "urn:uuid:30551ce1-5a28-4356-b684-3e639094ad09",
    "resource" : {
      "resourceType" : "Task",
      "id" : "propose-stroke",
      "text" : {
        "status" : "generated",
        "div" : "<div xmlns=\"http://www.w3.org/1999/xhtml\"><a name=\"Task_propose-stroke\"> </a><p class=\"res-header-id\"><b>Generated Narrative: Task propose-stroke</b></p><a name=\"propose-stroke\"> </a><a name=\"hcpropose-stroke\"> </a><a name=\"propose-stroke-en-US\"> </a><p><b>status</b>: Requested</p><p><b>intent</b>: proposal</p><p><b>code</b>: <span title=\"Codes:{http://hl7.org/fhir/uv/cpg/CodeSystem/cpg-activity-type-cs propose-diagnosis}\">Propose a diagnosis</span></p><p><b>for</b>: <a href=\"Patient-patient-r.html\"> Male, DoB Unknown</a></p><h3>Inputs</h3><table class=\"grid\"><tr><td style=\"display: none\">-</td><td><b>Type</b></td><td><b>Value[x]</b></td></tr><tr><td style=\"display: none\">*</td><td><span title=\"Codes:{http://hl7.org/fhir/uv/cpg/CodeSystem/cpg-activity-type-cs propose-diagnosis}\">Propose a diagnosis</span></td><td><a href=\"Condition-proposed-diagnosis-stroke.html\">Condition Ataxia, Stroke</a></td></tr></table></div>"
      },
      "status" : "requested",
      "intent" : "proposal",
      "code" : {
        "coding" : [{
          "system" : "http://hl7.org/fhir/uv/cpg/CodeSystem/cpg-activity-type-cs",
          "code" : "propose-diagnosis",
          "display" : "Propose a diagnosis"
        }]
      },
      "for" : {
        "reference" : "Patient/patient-r"
      },
      "input" : [{
        "type" : {
          "coding" : [{
            "system" : "http://hl7.org/fhir/uv/cpg/CodeSystem/cpg-activity-type-cs",
            "code" : "propose-diagnosis",
            "display" : "Propose a diagnosis"
          }]
        },
        "valueReference" : {
          "reference" : "Condition/proposed-diagnosis-stroke"
        }
      }]
    }
  },
  {
    "fullUrl" : "urn:uuid:30551ce1-5a28-4356-b684-4e639094ad09",
    "resource" : {
      "resourceType" : "Condition",
      "id" : "proposed-diagnosis-stroke",
      "meta" : {
        "profile" : ["http://hl7.org/fhir/uv/cpg/StructureDefinition/cpg-condition"]
      },
      "text" : {
        "status" : "generated",
        "div" : "<div xmlns=\"http://www.w3.org/1999/xhtml\"><a name=\"Condition_proposed-diagnosis-stroke\"> </a><p class=\"res-header-id\"><b>Generated Narrative: Condition proposed-diagnosis-stroke</b></p><a name=\"proposed-diagnosis-stroke\"> </a><a name=\"hcproposed-diagnosis-stroke\"> </a><a name=\"proposed-diagnosis-stroke-en-US\"> </a><div style=\"display: inline-block; background-color: #d9e0e7; padding: 6px; margin: 4px; border: 1px solid #8da1b4; border-radius: 5px; line-height: 60%\"><p style=\"margin-bottom: 0px\"/><p style=\"margin-bottom: 0px\">Profile: <a href=\"http://hl7.org/fhir/uv/cpg/STU2/StructureDefinition-cpg-condition.html\">CPG Condition</a></p></div><p><b>clinicalStatus</b>: <span title=\"Codes:{http://terminology.hl7.org/CodeSystem/condition-clinical active}\">Active</span></p><p><b>verificationStatus</b>: <span title=\"Codes:{http://terminology.hl7.org/CodeSystem/condition-ver-status provisional}\">Provisional</span></p><p><b>category</b>: <span title=\"Codes:{http://terminology.hl7.org/CodeSystem/condition-category problem-list-item}\">Problem List Item</span></p><p><b>code</b>: <span title=\"Codes:{https://www.ehealth.fgov.be/standards/fhir/pss/CodeSystem/PSSQSIConditions 3074220}\">Ataxia, Stroke</span></p><p><b>subject</b>: <a href=\"Patient-patient-r.html\"> Male, DoB Unknown</a></p><p><b>onset</b>: 2024-10-13</p></div>"
      },
      "clinicalStatus" : {
        "coding" : [{
          "system" : "http://terminology.hl7.org/CodeSystem/condition-clinical",
          "code" : "active"
        }]
      },
      "verificationStatus" : {
        "coding" : [{
          "system" : "http://terminology.hl7.org/CodeSystem/condition-ver-status",
          "code" : "provisional"
        }]
      },
      "category" : [{
        "coding" : [{
          "system" : "http://terminology.hl7.org/CodeSystem/condition-category",
          "code" : "problem-list-item"
        }]
      }],
      "code" : {
        "coding" : [{
          "system" : "https://www.ehealth.fgov.be/standards/fhir/pss/CodeSystem/PSSQSIConditions",
          "code" : "3074220",
          "display" : "Ataxia, Stroke"
        }]
      },
      "subject" : {
        "reference" : "Patient/patient-r"
      },
      "onsetDateTime" : "2024-10-13"
    }
  },
  {
    "fullUrl" : "urn:uuid:30551ce1-5a28-4356-b684-3e639094ad10",
    "resource" : {
      "resourceType" : "Task",
      "id" : "propose-infection",
      "text" : {
        "status" : "generated",
        "div" : "<div xmlns=\"http://www.w3.org/1999/xhtml\"><a name=\"Task_propose-infection\"> </a><p class=\"res-header-id\"><b>Generated Narrative: Task propose-infection</b></p><a name=\"propose-infection\"> </a><a name=\"hcpropose-infection\"> </a><a name=\"propose-infection-en-US\"> </a><p><b>status</b>: Requested</p><p><b>intent</b>: proposal</p><p><b>code</b>: <span title=\"Codes:{http://hl7.org/fhir/uv/cpg/CodeSystem/cpg-activity-type-cs propose-diagnosis}\">Propose a diagnosis</span></p><p><b>for</b>: <a href=\"Patient-patient-r.html\"> Male, DoB Unknown</a></p><h3>Inputs</h3><table class=\"grid\"><tr><td style=\"display: none\">-</td><td><b>Type</b></td><td><b>Value[x]</b></td></tr><tr><td style=\"display: none\">*</td><td><span title=\"Codes:{http://hl7.org/fhir/uv/cpg/CodeSystem/cpg-activity-type-cs propose-diagnosis}\">Propose a diagnosis</span></td><td><a href=\"Condition-proposed-diagnosis-infection.html\">Condition Ataxia, Infection</a></td></tr></table></div>"
      },
      "status" : "requested",
      "intent" : "proposal",
      "code" : {
        "coding" : [{
          "system" : "http://hl7.org/fhir/uv/cpg/CodeSystem/cpg-activity-type-cs",
          "code" : "propose-diagnosis",
          "display" : "Propose a diagnosis"
        }]
      },
      "for" : {
        "reference" : "Patient/patient-r"
      },
      "input" : [{
        "type" : {
          "coding" : [{
            "system" : "http://hl7.org/fhir/uv/cpg/CodeSystem/cpg-activity-type-cs",
            "code" : "propose-diagnosis",
            "display" : "Propose a diagnosis"
          }]
        },
        "valueReference" : {
          "reference" : "Condition/proposed-diagnosis-infection"
        }
      }]
    }
  },
  {
    "fullUrl" : "urn:uuid:30551ce1-5a28-4356-b684-4e639094ad10",
    "resource" : {
      "resourceType" : "Condition",
      "id" : "proposed-diagnosis-infection",
      "meta" : {
        "profile" : ["http://hl7.org/fhir/uv/cpg/StructureDefinition/cpg-condition"]
      },
      "text" : {
        "status" : "generated",
        "div" : "<div xmlns=\"http://www.w3.org/1999/xhtml\"><a name=\"Condition_proposed-diagnosis-infection\"> </a><p class=\"res-header-id\"><b>Generated Narrative: Condition proposed-diagnosis-infection</b></p><a name=\"proposed-diagnosis-infection\"> </a><a name=\"hcproposed-diagnosis-infection\"> </a><a name=\"proposed-diagnosis-infection-en-US\"> </a><div style=\"display: inline-block; background-color: #d9e0e7; padding: 6px; margin: 4px; border: 1px solid #8da1b4; border-radius: 5px; line-height: 60%\"><p style=\"margin-bottom: 0px\"/><p style=\"margin-bottom: 0px\">Profile: <a href=\"http://hl7.org/fhir/uv/cpg/STU2/StructureDefinition-cpg-condition.html\">CPG Condition</a></p></div><p><b>clinicalStatus</b>: <span title=\"Codes:{http://terminology.hl7.org/CodeSystem/condition-clinical active}\">Active</span></p><p><b>verificationStatus</b>: <span title=\"Codes:{http://terminology.hl7.org/CodeSystem/condition-ver-status provisional}\">Provisional</span></p><p><b>category</b>: <span title=\"Codes:{http://terminology.hl7.org/CodeSystem/condition-category problem-list-item}\">Problem List Item</span></p><p><b>code</b>: <span title=\"Codes:{https://www.ehealth.fgov.be/standards/fhir/pss/CodeSystem/PSSQSIConditions 3074221}\">Ataxia, Infection</span></p><p><b>subject</b>: <a href=\"Patient-patient-r.html\"> Male, DoB Unknown</a></p><p><b>onset</b>: 2024-10-13</p></div>"
      },
      "clinicalStatus" : {
        "coding" : [{
          "system" : "http://terminology.hl7.org/CodeSystem/condition-clinical",
          "code" : "active"
        }]
      },
      "verificationStatus" : {
        "coding" : [{
          "system" : "http://terminology.hl7.org/CodeSystem/condition-ver-status",
          "code" : "provisional"
        }]
      },
      "category" : [{
        "coding" : [{
          "system" : "http://terminology.hl7.org/CodeSystem/condition-category",
          "code" : "problem-list-item"
        }]
      }],
      "code" : {
        "coding" : [{
          "system" : "https://www.ehealth.fgov.be/standards/fhir/pss/CodeSystem/PSSQSIConditions",
          "code" : "3074221",
          "display" : "Ataxia, Infection"
        }]
      },
      "subject" : {
        "reference" : "Patient/patient-r"
      },
      "onsetDateTime" : "2024-10-13"
    }
  },
  {
    "fullUrl" : "urn:uuid:30551ce1-5a28-4356-b684-3e639094ad11",
    "resource" : {
      "resourceType" : "Task",
      "id" : "propose-head-trauma",
      "text" : {
        "status" : "generated",
        "div" : "<div xmlns=\"http://www.w3.org/1999/xhtml\"><a name=\"Task_propose-head-trauma\"> </a><p class=\"res-header-id\"><b>Generated Narrative: Task propose-head-trauma</b></p><a name=\"propose-head-trauma\"> </a><a name=\"hcpropose-head-trauma\"> </a><a name=\"propose-head-trauma-en-US\"> </a><p><b>status</b>: Requested</p><p><b>intent</b>: proposal</p><p><b>code</b>: <span title=\"Codes:{http://hl7.org/fhir/uv/cpg/CodeSystem/cpg-activity-type-cs propose-diagnosis}\">Propose a diagnosis</span></p><p><b>for</b>: <a href=\"Patient-patient-r.html\"> Male, DoB Unknown</a></p><h3>Inputs</h3><table class=\"grid\"><tr><td style=\"display: none\">-</td><td><b>Type</b></td><td><b>Value[x]</b></td></tr><tr><td style=\"display: none\">*</td><td><span title=\"Codes:{http://hl7.org/fhir/uv/cpg/CodeSystem/cpg-activity-type-cs propose-diagnosis}\">Propose a diagnosis</span></td><td><a href=\"Condition-proposed-diagnosis-head-trauma.html\">Condition Ataxia, Head Trauma</a></td></tr></table></div>"
      },
      "status" : "requested",
      "intent" : "proposal",
      "code" : {
        "coding" : [{
          "system" : "http://hl7.org/fhir/uv/cpg/CodeSystem/cpg-activity-type-cs",
          "code" : "propose-diagnosis",
          "display" : "Propose a diagnosis"
        }]
      },
      "for" : {
        "reference" : "Patient/patient-r"
      },
      "input" : [{
        "type" : {
          "coding" : [{
            "system" : "http://hl7.org/fhir/uv/cpg/CodeSystem/cpg-activity-type-cs",
            "code" : "propose-diagnosis",
            "display" : "Propose a diagnosis"
          }]
        },
        "valueReference" : {
          "reference" : "Condition/proposed-diagnosis-head-trauma"
        }
      }]
    }
  },
  {
    "fullUrl" : "urn:uuid:30551ce1-5a28-4356-b684-4e639094ad11",
    "resource" : {
      "resourceType" : "Condition",
      "id" : "proposed-diagnosis-head-trauma",
      "meta" : {
        "profile" : ["http://hl7.org/fhir/uv/cpg/StructureDefinition/cpg-condition"]
      },
      "text" : {
        "status" : "generated",
        "div" : "<div xmlns=\"http://www.w3.org/1999/xhtml\"><a name=\"Condition_proposed-diagnosis-head-trauma\"> </a><p class=\"res-header-id\"><b>Generated Narrative: Condition proposed-diagnosis-head-trauma</b></p><a name=\"proposed-diagnosis-head-trauma\"> </a><a name=\"hcproposed-diagnosis-head-trauma\"> </a><a name=\"proposed-diagnosis-head-trauma-en-US\"> </a><div style=\"display: inline-block; background-color: #d9e0e7; padding: 6px; margin: 4px; border: 1px solid #8da1b4; border-radius: 5px; line-height: 60%\"><p style=\"margin-bottom: 0px\"/><p style=\"margin-bottom: 0px\">Profile: <a href=\"http://hl7.org/fhir/uv/cpg/STU2/StructureDefinition-cpg-condition.html\">CPG Condition</a></p></div><p><b>clinicalStatus</b>: <span title=\"Codes:{http://terminology.hl7.org/CodeSystem/condition-clinical active}\">Active</span></p><p><b>verificationStatus</b>: <span title=\"Codes:{http://terminology.hl7.org/CodeSystem/condition-ver-status provisional}\">Provisional</span></p><p><b>category</b>: <span title=\"Codes:{http://terminology.hl7.org/CodeSystem/condition-category problem-list-item}\">Problem List Item</span></p><p><b>code</b>: <span title=\"Codes:{https://www.ehealth.fgov.be/standards/fhir/pss/CodeSystem/PSSQSIConditions 5000246}\">Ataxia, Head Trauma</span></p><p><b>subject</b>: <a href=\"Patient-patient-r.html\"> Male, DoB Unknown</a></p><p><b>onset</b>: 2024-10-13</p></div>"
      },
      "clinicalStatus" : {
        "coding" : [{
          "system" : "http://terminology.hl7.org/CodeSystem/condition-clinical",
          "code" : "active"
        }]
      },
      "verificationStatus" : {
        "coding" : [{
          "system" : "http://terminology.hl7.org/CodeSystem/condition-ver-status",
          "code" : "provisional"
        }]
      },
      "category" : [{
        "coding" : [{
          "system" : "http://terminology.hl7.org/CodeSystem/condition-category",
          "code" : "problem-list-item"
        }]
      }],
      "code" : {
        "coding" : [{
          "system" : "https://www.ehealth.fgov.be/standards/fhir/pss/CodeSystem/PSSQSIConditions",
          "code" : "5000246",
          "display" : "Ataxia, Head Trauma"
        }]
      },
      "subject" : {
        "reference" : "Patient/patient-r"
      },
      "onsetDateTime" : "2024-10-13"
    }
  },
  {
    "fullUrl" : "urn:uuid:30551ce1-5a28-4356-b684-3e639094ad12",
    "resource" : {
      "resourceType" : "Task",
      "id" : "propose-slow-progression-ataxia",
      "text" : {
        "status" : "generated",
        "div" : "<div xmlns=\"http://www.w3.org/1999/xhtml\"><a name=\"Task_propose-slow-progression-ataxia\"> </a><p class=\"res-header-id\"><b>Generated Narrative: Task propose-slow-progression-ataxia</b></p><a name=\"propose-slow-progression-ataxia\"> </a><a name=\"hcpropose-slow-progression-ataxia\"> </a><a name=\"propose-slow-progression-ataxia-en-US\"> </a><p><b>status</b>: Requested</p><p><b>intent</b>: proposal</p><p><b>code</b>: <span title=\"Codes:{http://hl7.org/fhir/uv/cpg/CodeSystem/cpg-activity-type-cs propose-diagnosis}\">Propose a diagnosis</span></p><p><b>for</b>: <a href=\"Patient-patient-r.html\"> Male, DoB Unknown</a></p><h3>Inputs</h3><table class=\"grid\"><tr><td style=\"display: none\">-</td><td><b>Type</b></td><td><b>Value[x]</b></td></tr><tr><td style=\"display: none\">*</td><td><span title=\"Codes:{http://hl7.org/fhir/uv/cpg/CodeSystem/cpg-activity-type-cs propose-diagnosis}\">Propose a diagnosis</span></td><td><a href=\"Condition-proposed-diagnosis-slow-progression-ataxia.html\">Condition Ataxia, Slow-progression-ataxia</a></td></tr></table></div>"
      },
      "status" : "requested",
      "intent" : "proposal",
      "code" : {
        "coding" : [{
          "system" : "http://hl7.org/fhir/uv/cpg/CodeSystem/cpg-activity-type-cs",
          "code" : "propose-diagnosis",
          "display" : "Propose a diagnosis"
        }]
      },
      "for" : {
        "reference" : "Patient/patient-r"
      },
      "input" : [{
        "type" : {
          "coding" : [{
            "system" : "http://hl7.org/fhir/uv/cpg/CodeSystem/cpg-activity-type-cs",
            "code" : "propose-diagnosis",
            "display" : "Propose a diagnosis"
          }]
        },
        "valueReference" : {
          "reference" : "Condition/proposed-diagnosis-slow-progression-ataxia"
        }
      }]
    }
  },
  {
    "fullUrl" : "urn:uuid:30551ce1-5a28-4356-b684-4e639094ad12",
    "resource" : {
      "resourceType" : "Condition",
      "id" : "proposed-diagnosis-slow-progression-ataxia",
      "meta" : {
        "profile" : ["http://hl7.org/fhir/uv/cpg/StructureDefinition/cpg-condition"]
      },
      "text" : {
        "status" : "generated",
        "div" : "<div xmlns=\"http://www.w3.org/1999/xhtml\"><a name=\"Condition_proposed-diagnosis-slow-progression-ataxia\"> </a><p class=\"res-header-id\"><b>Generated Narrative: Condition proposed-diagnosis-slow-progression-ataxia</b></p><a name=\"proposed-diagnosis-slow-progression-ataxia\"> </a><a name=\"hcproposed-diagnosis-slow-progression-ataxia\"> </a><a name=\"proposed-diagnosis-slow-progression-ataxia-en-US\"> </a><div style=\"display: inline-block; background-color: #d9e0e7; padding: 6px; margin: 4px; border: 1px solid #8da1b4; border-radius: 5px; line-height: 60%\"><p style=\"margin-bottom: 0px\"/><p style=\"margin-bottom: 0px\">Profile: <a href=\"http://hl7.org/fhir/uv/cpg/STU2/StructureDefinition-cpg-condition.html\">CPG Condition</a></p></div><p><b>clinicalStatus</b>: <span title=\"Codes:{http://terminology.hl7.org/CodeSystem/condition-clinical active}\">Active</span></p><p><b>verificationStatus</b>: <span title=\"Codes:{http://terminology.hl7.org/CodeSystem/condition-ver-status provisional}\">Provisional</span></p><p><b>category</b>: <span title=\"Codes:{http://terminology.hl7.org/CodeSystem/condition-category problem-list-item}\">Problem List Item</span></p><p><b>code</b>: <span title=\"Codes:{https://www.ehealth.fgov.be/standards/fhir/pss/CodeSystem/PSSQSIConditions 3074219}\">Ataxia, Slow-progression-ataxia</span></p><p><b>subject</b>: <a href=\"Patient-patient-r.html\"> Male, DoB Unknown</a></p><p><b>onset</b>: 2024-10-13</p></div>"
      },
      "clinicalStatus" : {
        "coding" : [{
          "system" : "http://terminology.hl7.org/CodeSystem/condition-clinical",
          "code" : "active"
        }]
      },
      "verificationStatus" : {
        "coding" : [{
          "system" : "http://terminology.hl7.org/CodeSystem/condition-ver-status",
          "code" : "provisional"
        }]
      },
      "category" : [{
        "coding" : [{
          "system" : "http://terminology.hl7.org/CodeSystem/condition-category",
          "code" : "problem-list-item"
        }]
      }],
      "code" : {
        "coding" : [{
          "system" : "https://www.ehealth.fgov.be/standards/fhir/pss/CodeSystem/PSSQSIConditions",
          "code" : "3074219",
          "display" : "Ataxia, Slow-progression-ataxia"
        }]
      },
      "subject" : {
        "reference" : "Patient/patient-r"
      },
      "onsetDateTime" : "2024-10-13"
    }
  },
  {
    "fullUrl" : "urn:uuid:30551ce1-5a28-4356-b684-3e639094ad13",
    "resource" : {
      "resourceType" : "Task",
      "id" : "propose-post-trauma-ataxia",
      "text" : {
        "status" : "generated",
        "div" : "<div xmlns=\"http://www.w3.org/1999/xhtml\"><a name=\"Task_propose-post-trauma-ataxia\"> </a><p class=\"res-header-id\"><b>Generated Narrative: Task propose-post-trauma-ataxia</b></p><a name=\"propose-post-trauma-ataxia\"> </a><a name=\"hcpropose-post-trauma-ataxia\"> </a><a name=\"propose-post-trauma-ataxia-en-US\"> </a><p><b>status</b>: Requested</p><p><b>intent</b>: proposal</p><p><b>code</b>: <span title=\"Codes:{http://hl7.org/fhir/uv/cpg/CodeSystem/cpg-activity-type-cs propose-diagnosis}\">Propose a diagnosis</span></p><p><b>for</b>: <a href=\"Patient-patient-r.html\"> Male, DoB Unknown</a></p><h3>Inputs</h3><table class=\"grid\"><tr><td style=\"display: none\">-</td><td><b>Type</b></td><td><b>Value[x]</b></td></tr><tr><td style=\"display: none\">*</td><td><span title=\"Codes:{http://hl7.org/fhir/uv/cpg/CodeSystem/cpg-activity-type-cs propose-diagnosis}\">Propose a diagnosis</span></td><td><a href=\"Condition-proposed-diagnosis-post-trauma-ataxia.html\">Condition Ataxia, Post-trauma ataxia</a></td></tr></table></div>"
      },
      "status" : "requested",
      "intent" : "proposal",
      "code" : {
        "coding" : [{
          "system" : "http://hl7.org/fhir/uv/cpg/CodeSystem/cpg-activity-type-cs",
          "code" : "propose-diagnosis",
          "display" : "Propose a diagnosis"
        }]
      },
      "for" : {
        "reference" : "Patient/patient-r"
      },
      "input" : [{
        "type" : {
          "coding" : [{
            "system" : "http://hl7.org/fhir/uv/cpg/CodeSystem/cpg-activity-type-cs",
            "code" : "propose-diagnosis",
            "display" : "Propose a diagnosis"
          }]
        },
        "valueReference" : {
          "reference" : "Condition/proposed-diagnosis-post-trauma-ataxia"
        }
      }]
    }
  },
  {
    "fullUrl" : "urn:uuid:30551ce1-5a28-4356-b684-4e639094ad13",
    "resource" : {
      "resourceType" : "Condition",
      "id" : "proposed-diagnosis-post-trauma-ataxia",
      "meta" : {
        "profile" : ["http://hl7.org/fhir/uv/cpg/StructureDefinition/cpg-condition"]
      },
      "text" : {
        "status" : "generated",
        "div" : "<div xmlns=\"http://www.w3.org/1999/xhtml\"><a name=\"Condition_proposed-diagnosis-post-trauma-ataxia\"> </a><p class=\"res-header-id\"><b>Generated Narrative: Condition proposed-diagnosis-post-trauma-ataxia</b></p><a name=\"proposed-diagnosis-post-trauma-ataxia\"> </a><a name=\"hcproposed-diagnosis-post-trauma-ataxia\"> </a><a name=\"proposed-diagnosis-post-trauma-ataxia-en-US\"> </a><div style=\"display: inline-block; background-color: #d9e0e7; padding: 6px; margin: 4px; border: 1px solid #8da1b4; border-radius: 5px; line-height: 60%\"><p style=\"margin-bottom: 0px\"/><p style=\"margin-bottom: 0px\">Profile: <a href=\"http://hl7.org/fhir/uv/cpg/STU2/StructureDefinition-cpg-condition.html\">CPG Condition</a></p></div><p><b>clinicalStatus</b>: <span title=\"Codes:{http://terminology.hl7.org/CodeSystem/condition-clinical active}\">Active</span></p><p><b>verificationStatus</b>: <span title=\"Codes:{http://terminology.hl7.org/CodeSystem/condition-ver-status provisional}\">Provisional</span></p><p><b>category</b>: <span title=\"Codes:{http://terminology.hl7.org/CodeSystem/condition-category problem-list-item}\">Problem List Item</span></p><p><b>code</b>: <span title=\"Codes:{https://www.ehealth.fgov.be/standards/fhir/pss/CodeSystem/PSSQSIConditions 3074222}\">Ataxia, Post-trauma ataxia</span></p><p><b>subject</b>: <a href=\"Patient-patient-r.html\"> Male, DoB Unknown</a></p><p><b>onset</b>: 2024-10-13</p></div>"
      },
      "clinicalStatus" : {
        "coding" : [{
          "system" : "http://terminology.hl7.org/CodeSystem/condition-clinical",
          "code" : "active"
        }]
      },
      "verificationStatus" : {
        "coding" : [{
          "system" : "http://terminology.hl7.org/CodeSystem/condition-ver-status",
          "code" : "provisional"
        }]
      },
      "category" : [{
        "coding" : [{
          "system" : "http://terminology.hl7.org/CodeSystem/condition-category",
          "code" : "problem-list-item"
        }]
      }],
      "code" : {
        "coding" : [{
          "system" : "https://www.ehealth.fgov.be/standards/fhir/pss/CodeSystem/PSSQSIConditions",
          "code" : "3074222",
          "display" : "Ataxia, Post-trauma ataxia"
        }]
      },
      "subject" : {
        "reference" : "Patient/patient-r"
      },
      "onsetDateTime" : "2024-10-13"
    }
  }]
}