<?xml version="1.0" encoding="UTF-8"?>

<Bundle xmlns="http://hl7.org/fhir">
  <id value="getrecommendations-r-return"/>
  <meta>
    <profile value="https://www.ehealth.fgov.be/standards/fhir/pss/StructureDefinition/PSSResponseBundle"/>
  </meta>
  <identifier>
    <value value="response1"/>
  </identifier>
  <type value="collection"/>
  <timestamp value="2025-02-20T00:00:00Z"/>
  <entry>
    <fullUrl value="urn:uuid:30551ce1-5a28-4356-b684-1e639094ad21"/>
    <resource>
      <RequestGroup>
        <id value="getrecommendations-r-return-1"/>
        <meta>
          <profile value="https://www.ehealth.fgov.be/standards/fhir/pss/StructureDefinition/PSSResponseRequestGroup"/>
        </meta>
        <text>
          <status value="generated"/><div xmlns="http://www.w3.org/1999/xhtml"><a name="RequestGroup_getrecommendations-r-return-1"> </a><p class="res-header-id"><b>Generated Narrative: RequestGroup getrecommendations-r-return-1</b></p><a name="getrecommendations-r-return-1"> </a><a name="hcgetrecommendations-r-return-1"> </a><a name="getrecommendations-r-return-1-en-US"> </a><div style="display: inline-block; background-color: #d9e0e7; padding: 6px; margin: 4px; border: 1px solid #8da1b4; border-radius: 5px; line-height: 60%"><p style="margin-bottom: 0px"/><p style="margin-bottom: 0px">Profile: <a href="StructureDefinition-PSSResponseRequestGroup.html">PSS Response Request Group</a></p></div><p><b>status</b>: Active</p><p><b>intent</b>: Proposal</p><p><b>subject</b>: <a href="Patient-patient-r.html"> Male, DoB Unknown</a></p><blockquote><p><b>action</b></p><p><b>selectionBehavior</b>: At Most One</p><h3>Actions</h3><table class="grid"><tr><td style="display: none">-</td><td><b>Extension</b></td><td><b>TextEquivalent</b></td><td><b>Resource</b></td></tr><tr><td style="display: none">*</td><td/><td>CT Head with or without contrast</td><td><a href="ServiceRequest-ct-head-with-or-without-contrast.html">ServiceRequest CT, head, without or without contrast</a></td></tr><tr><td style="display: none">*</td><td>, </td><td>CT Head with IV contrast</td><td><a href="ServiceRequest-ct-head-iv-contrast.html">ServiceRequest CT, head, without IV contrast</a></td></tr><tr><td style="display: none">*</td><td>, </td><td>MR Head without contrast</td><td><a href="ServiceRequest-mr-head-without-contrast.html">ServiceRequest MR, head, without IV contrast</a></td></tr></table></blockquote></div>
        </text>
        <status value="active"/>
        <intent value="proposal"/>
        <subject>
          <reference value="Patient/patient-r"/>
        </subject>
        <action>
          <selectionBehavior value="at-most-one"/>
          <action>
            <extension url="https://www.ehealth.fgov.be/standards/fhir/pss/StructureDefinition/PSSStructuredRating">
              <extension url="ratingType">
                <valueCode value="radiationexposure"/>
              </extension>
              <extension url="ratingValue">
                <valueRatio>
                  <numerator>
                    <value value="2"/>
                  </numerator>
                  <denominator>
                    <value value="3"/>
                  </denominator>
                </valueRatio>
              </extension>
              <extension url="ratingText">
                <valueMarkdown value="Whoa!...."/>
              </extension>
            </extension>
            <textEquivalent value="CT Head with or without contrast"/>
            <resource>
              <reference value="ServiceRequest/ct-head-with-or-without-contrast"/>
            </resource>
          </action>
          <action>
            <extension url="https://www.ehealth.fgov.be/standards/fhir/pss/StructureDefinition/PSSStructuredRating">
              <extension url="ratingType">
                <valueCode value="radiationexposure"/>
              </extension>
              <extension url="ratingValue">
                <valueRatio>
                  <numerator>
                    <value value="2"/>
                  </numerator>
                  <denominator>
                    <value value="3"/>
                  </denominator>
                </valueRatio>
              </extension>
              <extension url="ratingText">
                <valueMarkdown value="Whoa!...."/>
              </extension>
            </extension>
            <extension url="https://www.ehealth.fgov.be/standards/fhir/pss/StructureDefinition/PSSStructuredRating">
              <extension url="ratingType">
                <valueCode value="overall"/>
              </extension>
              <extension url="ratingValue">
                <valueRatio>
                  <numerator>
                    <value value="1"/>
                  </numerator>
                  <denominator>
                    <value value="3"/>
                  </denominator>
                </valueRatio>
              </extension>
              <extension url="ratingText">
                <valueMarkdown value="Not recommended"/>
              </extension>
            </extension>
            <textEquivalent value="CT Head with IV contrast"/>
            <resource>
              <reference value="ServiceRequest/ct-head-iv-contrast"/>
            </resource>
          </action>
          <action>
            <extension url="https://www.ehealth.fgov.be/standards/fhir/pss/StructureDefinition/PSSStructuredRating">
              <extension url="ratingType">
                <valueCode value="radiationexposure"/>
              </extension>
              <extension url="ratingValue">
                <valueRatio>
                  <numerator>
                    <value value="2"/>
                  </numerator>
                  <denominator>
                    <value value="3"/>
                  </denominator>
                </valueRatio>
              </extension>
              <extension url="ratingText">
                <valueMarkdown value="Whoa!...."/>
              </extension>
            </extension>
            <extension url="https://www.ehealth.fgov.be/standards/fhir/pss/StructureDefinition/PSSStructuredRating">
              <extension url="ratingType">
                <valueCode value="overall"/>
              </extension>
              <extension url="ratingValue">
                <valueRatio>
                  <numerator>
                    <value value="1"/>
                  </numerator>
                  <denominator>
                    <value value="3"/>
                  </denominator>
                </valueRatio>
              </extension>
              <extension url="ratingText">
                <valueMarkdown value="Not recommended"/>
              </extension>
            </extension>
            <textEquivalent value="MR Head without contrast"/>
            <resource>
              <reference value="ServiceRequest/mr-head-without-contrast"/>
            </resource>
          </action>
        </action>
      </RequestGroup>
    </resource>
  </entry>
  <entry>
    <fullUrl value="urn:uuid:30551ce1-5a28-4356-b684-1e639094ad23"/>
    <resource>
      <ServiceRequest>
        <id value="ct-head-with-or-without-contrast"/>
        <meta>
          <versionId value="v3"/>
          <profile value="https://www.ehealth.fgov.be/standards/fhir/pss/StructureDefinition/PSSResponseServiceRequest"/>
        </meta>
        <text>
          <status value="generated"/><div xmlns="http://www.w3.org/1999/xhtml"><a name="ServiceRequest_ct-head-with-or-without-contrast"> </a><p class="res-header-id"><b>Generated Narrative: ServiceRequest ct-head-with-or-without-contrast</b></p><a name="ct-head-with-or-without-contrast"> </a><a name="hcct-head-with-or-without-contrast"> </a><a name="ct-head-with-or-without-contrast-en-US"> </a><div style="display: inline-block; background-color: #d9e0e7; padding: 6px; margin: 4px; border: 1px solid #8da1b4; border-radius: 5px; line-height: 60%"><p style="margin-bottom: 0px">version: v3</p><p style="margin-bottom: 0px">Profile: <a href="StructureDefinition-PSSResponseServiceRequest.html">PSS Response Service Request</a></p></div><p><b>status</b>: Active</p><p><b>intent</b>: Proposal</p><p><b>code</b>: <span title="Codes:{https://www.ehealth.fgov.be/standards/fhir/pss/CodeSystem/PSSQSIProcedures 114054}">CT, head, without or without contrast</span></p><p><b>subject</b>: <a href="Patient-patient-r.html"> Male, DoB Unknown</a></p></div>
        </text>
        <status value="active"/>
        <intent value="proposal"/>
        <code>
          <coding>
            <system value="https://www.ehealth.fgov.be/standards/fhir/pss/CodeSystem/PSSQSIProcedures"/>
            <code value="114054"/>
            <display value="CT, head, without or without contrast"/>
          </coding>
        </code>
        <subject>
          <reference value="Patient/patient-r"/>
        </subject>
      </ServiceRequest>
    </resource>
  </entry>
  <entry>
    <fullUrl value="urn:uuid:30551ce1-5a28-4356-b684-1e639094ad22"/>
    <resource>
      <ServiceRequest>
        <id value="ct-head-iv-contrast"/>
        <meta>
          <versionId value="v3"/>
          <profile value="https://www.ehealth.fgov.be/standards/fhir/pss/StructureDefinition/PSSResponseServiceRequest"/>
        </meta>
        <text>
          <status value="generated"/><div xmlns="http://www.w3.org/1999/xhtml"><a name="ServiceRequest_ct-head-iv-contrast"> </a><p class="res-header-id"><b>Generated Narrative: ServiceRequest ct-head-iv-contrast</b></p><a name="ct-head-iv-contrast"> </a><a name="hcct-head-iv-contrast"> </a><a name="ct-head-iv-contrast-en-US"> </a><div style="display: inline-block; background-color: #d9e0e7; padding: 6px; margin: 4px; border: 1px solid #8da1b4; border-radius: 5px; line-height: 60%"><p style="margin-bottom: 0px">version: v3</p><p style="margin-bottom: 0px">Profile: <a href="StructureDefinition-PSSResponseServiceRequest.html">PSS Response Service Request</a></p></div><p><b>status</b>: Active</p><p><b>intent</b>: Proposal</p><p><b>code</b>: <span title="Codes:{https://www.ehealth.fgov.be/standards/fhir/pss/CodeSystem/PSSQSIProcedures 114055}">CT, head, without IV contrast</span></p><p><b>subject</b>: <a href="Patient-patient-r.html"> Male, DoB Unknown</a></p></div>
        </text>
        <status value="active"/>
        <intent value="proposal"/>
        <code>
          <coding>
            <system value="https://www.ehealth.fgov.be/standards/fhir/pss/CodeSystem/PSSQSIProcedures"/>
            <code value="114055"/>
            <display value="CT, head, without IV contrast"/>
          </coding>
        </code>
        <subject>
          <reference value="Patient/patient-r"/>
        </subject>
      </ServiceRequest>
    </resource>
  </entry>
  <entry>
    <fullUrl value="urn:uuid:30551ce1-5a28-4356-b684-1e639044ad77"/>
    <resource>
      <ServiceRequest>
        <id value="mr-head-without-contrast"/>
        <meta>
          <profile value="https://www.ehealth.fgov.be/standards/fhir/pss/StructureDefinition/PSSResponseServiceRequest"/>
        </meta>
        <text>
          <status value="generated"/><div xmlns="http://www.w3.org/1999/xhtml"><a name="ServiceRequest_mr-head-without-contrast"> </a><p class="res-header-id"><b>Generated Narrative: ServiceRequest mr-head-without-contrast</b></p><a name="mr-head-without-contrast"> </a><a name="hcmr-head-without-contrast"> </a><a name="mr-head-without-contrast-en-US"> </a><div style="display: inline-block; background-color: #d9e0e7; padding: 6px; margin: 4px; border: 1px solid #8da1b4; border-radius: 5px; line-height: 60%"><p style="margin-bottom: 0px"/><p style="margin-bottom: 0px">Profile: <a href="StructureDefinition-PSSResponseServiceRequest.html">PSS Response Service Request</a></p></div><p><b>status</b>: Active</p><p><b>intent</b>: Proposal</p><p><b>code</b>: <span title="Codes:{https://www.ehealth.fgov.be/standards/fhir/pss/CodeSystem/PSSQSIProcedures 114092}">MR, head, without IV contrast</span></p><p><b>subject</b>: <a href="Patient-patient-r.html"> Male, DoB Unknown</a></p></div>
        </text>
        <status value="active"/>
        <intent value="proposal"/>
        <code>
          <coding>
            <system value="https://www.ehealth.fgov.be/standards/fhir/pss/CodeSystem/PSSQSIProcedures"/>
            <code value="114092"/>
            <display value="MR, head, without IV contrast"/>
          </coding>
        </code>
        <subject>
          <reference value="Patient/patient-r"/>
        </subject>
      </ServiceRequest>
    </resource>
  </entry>
</Bundle>