<?xml version="1.0" encoding="UTF-8"?>

<Bundle xmlns="http://hl7.org/fhir">
  <id value="getrecommendations-a-return"/>
  <meta>
    <profile value="https://www.ehealth.fgov.be/standards/fhir/pss/StructureDefinition/PSSResponseBundle"/>
  </meta>
  <identifier>
    <value value="response1"/>
  </identifier>
  <type value="collection"/>
  <timestamp value="2025-02-20T00:00:00Z"/>
  <entry>
    <fullUrl value="urn:uuid:30551ce1-5a28-4356-b684-1e639094ad21"/>
    <resource>
      <RequestGroup>
        <id value="getrecommendations-a-return-group"/>
        <meta>
          <profile value="https://www.ehealth.fgov.be/standards/fhir/pss/StructureDefinition/PSSResponseRequestGroup"/>
        </meta>
        <text>
          <status value="generated"/><div xmlns="http://www.w3.org/1999/xhtml"><a name="RequestGroup_getrecommendations-a-return-group"> </a><p class="res-header-id"><b>Generated Narrative: RequestGroup getrecommendations-a-return-group</b></p><a name="getrecommendations-a-return-group"> </a><a name="hcgetrecommendations-a-return-group"> </a><a name="getrecommendations-a-return-group-en-US"> </a><div style="display: inline-block; background-color: #d9e0e7; padding: 6px; margin: 4px; border: 1px solid #8da1b4; border-radius: 5px; line-height: 60%"><p style="margin-bottom: 0px"/><p style="margin-bottom: 0px">Profile: <a href="StructureDefinition-PSSResponseRequestGroup.html">PSS Response Request Group</a></p></div><p><b>status</b>: Active</p><p><b>intent</b>: Proposal</p><p><b>subject</b>: <a href="Patient-patient-a.html"> Female, DoB Unknown</a></p><p><b>note</b>: Supporting evidence: [BCFI](https://bcfi.be/nl)</p><blockquote><p><b>action</b></p><p><b>selectionBehavior</b>: At Most One</p><h3>Actions</h3><table class="grid"><tr><td style="display: none">-</td><td><b>Extension</b></td><td><b>TextEquivalent</b></td><td><b>Resource</b></td></tr><tr><td style="display: none">*</td><td> </td><td>Generic Antibiotic advice</td><td><a href="CommunicationRequest-ab-advice.html">CommunicationRequest: status = active</a></td></tr><tr><td style="display: none">*</td><td/><td>Metronidazol Oraal</td><td><a href="MedicationRequest-metronidazol.html">MedicationRequest: status = active; intent = proposal; medication[x] = metronidazole</a></td></tr><tr><td style="display: none">*</td><td/><td>Clindamycin local</td><td><a href="MedicationRequest-clindamycin.html">MedicationRequest: status = active; intent = proposal; medication[x] = </a></td></tr><tr><td style="display: none">*</td><td/><td>Fluconazol Oraal</td><td><a href="MedicationRequest-fluconazol.html">MedicationRequest: status = active; intent = proposal; medication[x] = </a></td></tr><tr><td style="display: none">*</td><td/><td>Miconazol lokaal</td><td><a href="MedicationRequest-miconazol.html">MedicationRequest: status = active; intent = proposal; medication[x] = </a></td></tr></table></blockquote></div>
        </text>
        <status value="active"/>
        <intent value="proposal"/>
        <subject>
          <reference value="Patient/patient-a"/>
        </subject>
        <note>
          <text value="Supporting evidence: [BCFI](https://bcfi.be/nl)"/>
        </note>
        <action>
          <selectionBehavior value="at-most-one"/>
          <action>
            <textEquivalent value="Generic Antibiotic advice"/>
            <resource>
              <reference value="CommunicationRequest/ab-advice"/>
            </resource>
          </action>
          <action>
            <extension url="https://www.ehealth.fgov.be/standards/fhir/pss/StructureDefinition/PSSStructuredRating">
              <extension url="ratingType">
                <valueCode value="overall"/>
              </extension>
              <extension url="ratingValue">
                <valueRatio>
                  <numerator>
                    <value value="2"/>
                  </numerator>
                  <denominator>
                    <value value="3"/>
                  </denominator>
                </valueRatio>
              </extension>
              <extension url="ratingText">
                <valueMarkdown value="Recommended"/>
              </extension>
            </extension>
            <textEquivalent value="Metronidazol Oraal"/>
            <resource>
              <reference value="MedicationRequest/metronidazol"/>
            </resource>
          </action>
          <action>
            <extension url="https://www.ehealth.fgov.be/standards/fhir/pss/StructureDefinition/PSSStructuredRating">
              <extension url="ratingType">
                <valueCode value="overall"/>
              </extension>
              <extension url="ratingValue">
                <valueRatio>
                  <numerator>
                    <value value="2"/>
                  </numerator>
                  <denominator>
                    <value value="3"/>
                  </denominator>
                </valueRatio>
              </extension>
              <extension url="ratingText">
                <valueMarkdown value="Recommended"/>
              </extension>
            </extension>
            <textEquivalent value="Clindamycin local"/>
            <resource>
              <reference value="MedicationRequest/clindamycin"/>
            </resource>
          </action>
          <action>
            <extension url="https://www.ehealth.fgov.be/standards/fhir/pss/StructureDefinition/PSSStructuredRating">
              <extension url="ratingType">
                <valueCode value="overall"/>
              </extension>
              <extension url="ratingValue">
                <valueRatio>
                  <numerator>
                    <value value="2"/>
                  </numerator>
                  <denominator>
                    <value value="3"/>
                  </denominator>
                </valueRatio>
              </extension>
              <extension url="ratingText">
                <valueMarkdown value="Recommended"/>
              </extension>
            </extension>
            <textEquivalent value="Fluconazol Oraal"/>
            <resource>
              <reference value="MedicationRequest/fluconazol"/>
            </resource>
          </action>
          <action>
            <extension url="https://www.ehealth.fgov.be/standards/fhir/pss/StructureDefinition/PSSStructuredRating">
              <extension url="ratingType">
                <valueCode value="overall"/>
              </extension>
              <extension url="ratingValue">
                <valueRatio>
                  <numerator>
                    <value value="2"/>
                  </numerator>
                  <denominator>
                    <value value="3"/>
                  </denominator>
                </valueRatio>
              </extension>
              <extension url="ratingText">
                <valueMarkdown value="Recommended"/>
              </extension>
            </extension>
            <textEquivalent value="Miconazol lokaal"/>
            <resource>
              <reference value="MedicationRequest/miconazol"/>
            </resource>
          </action>
        </action>
      </RequestGroup>
    </resource>
  </entry>
  <entry>
    <fullUrl value="urn:uuid:30551ce1-5a28-4356-b684-1e639094ad22"/>
    <resource>
      <CommunicationRequest>
        <id value="ab-advice"/>
        <meta>
          <profile value="https://www.ehealth.fgov.be/standards/fhir/pss/StructureDefinition/PSSResponseCommunicationRequest"/>
          <profile value="http://hl7.org/fhir/uv/cpg/StructureDefinition/cpg-communicationrequest"/>
        </meta>
        <text>
          <status value="extensions"/><div xmlns="http://www.w3.org/1999/xhtml"><a name="CommunicationRequest_ab-advice"> </a><p class="res-header-id"><b>Generated Narrative: CommunicationRequest ab-advice</b></p><a name="ab-advice"> </a><a name="hcab-advice"> </a><a name="ab-advice-en-US"> </a><div style="display: inline-block; background-color: #d9e0e7; padding: 6px; margin: 4px; border: 1px solid #8da1b4; border-radius: 5px; line-height: 60%"><p style="margin-bottom: 0px"/><p style="margin-bottom: 0px">Profiles: <a href="StructureDefinition-PSSResponseCommunicationRequest.html">PSS Response Communication Request</a>, <a href="http://hl7.org/fhir/uv/cpg/STU2/StructureDefinition-cpg-communicationrequest.html">CPG Communication Request</a></p></div><p><b>status</b>: Active</p><p><b>subject</b>: <a href="Patient-patient-a.html"> Female, DoB Unknown</a></p><h3>Payloads</h3><table class="grid"><tr><td style="display: none">-</td><td><b>Content[x]</b></td></tr><tr><td style="display: none">*</td><td><code>Markdown: </code><div><p>Antibioticum behandeling enkel bij storende klachten of bij verhoogd risico op vroeggeboorte...: <a href="https://www.bcfi.be/nl/chapters/12?frag=8000010">site BCFI</a></p>
</div></td></tr></table></div>
        </text>
        <status value="active"/>
        <subject>
          <reference value="Patient/patient-a"/>
        </subject>
        <payload>
          <contentString>
            <extension url="http://hl7.org/fhir/StructureDefinition/rendering-markdown">
              <valueMarkdown value="Antibioticum behandeling enkel bij storende klachten of bij verhoogd risico op vroeggeboorte...: [site BCFI](https://www.bcfi.be/nl/chapters/12?frag=8000010)">
                <extension url="http://hl7.org/fhir/StructureDefinition/translation">
                  <extension url="lang">
                    <valueCode value="fr-BE"/>
                  </extension>
                  <extension url="content">
                    <valueString value="Traitement antibiotique uniquement en cas de symptômes dérangeants ou de risque accru de naissance prématurée: [site BCFI](https://www.bcfi.be/nl/chapters/12?frag=8000010)"/>
                  </extension>
                </extension>
              </valueMarkdown>
            </extension>
          </contentString>
        </payload>
      </CommunicationRequest>
    </resource>
  </entry>
  <entry>
    <fullUrl value="urn:uuid:30551ce1-5a28-4356-b684-1e639094ac23"/>
    <resource>
      <MedicationRequest>
        <id value="metronidazol"/>
        <text>
          <status value="generated"/><div xmlns="http://www.w3.org/1999/xhtml"><a name="MedicationRequest_metronidazol"> </a><p class="res-header-id"><b>Generated Narrative: MedicationRequest metronidazol</b></p><a name="metronidazol"> </a><a name="hcmetronidazol"> </a><a name="metronidazol-en-US"> </a><p><b>status</b>: Active</p><p><b>intent</b>: Proposal</p><p><b>medication</b>: <span title="Codes:{http://www.whocc.no/atc J01XD01}">metronidazol</span></p><p><b>subject</b>: <a href="Patient-patient-a.html"> Female, DoB Unknown</a></p><h3>DosageInstructions</h3><table class="grid"><tr><td style="display: none">-</td><td><b>Text</b></td><td><b>Timing</b></td></tr><tr><td style="display: none">*</td><td>Timing = 3 times a day for 7 days. Dosage depends on patient age: If age &lt; 2 years, 375 mg; If age is between 2 and 10 years, 750 mg, if age &gt; 10 years, 1500 mg</td><td>3 per 1 day</td></tr></table></div>
        </text>
        <status value="active"/>
        <intent value="proposal"/>
        <medicationCodeableConcept>
          <coding>
            <system value="http://www.whocc.no/atc"/>
            <code value="J01XD01"/>
          </coding>
          <text value="metronidazol"/>
        </medicationCodeableConcept>
        <subject>
          <reference value="Patient/patient-a"/>
        </subject>
        <dosageInstruction>
          <text value="Timing = 3 times a day for 7 days. Dosage depends on patient age: If age &lt; 2 years, 375 mg; If age is between 2 and 10 years, 750 mg, if age &gt; 10 years, 1500 mg"/>
          <timing>
            <repeat>
              <boundsDuration>
                <value value="7"/>
                <system value="http://unitsofmeasure.org"/>
                <code value="d"/>
              </boundsDuration>
              <frequency value="3"/>
              <period value="1"/>
              <periodUnit value="d"/>
            </repeat>
          </timing>
        </dosageInstruction>
      </MedicationRequest>
    </resource>
  </entry>
  <entry>
    <fullUrl value="urn:uuid:30551ce1-5a28-4356-b684-1e639094ad24"/>
    <resource>
      <MedicationRequest>
        <id value="clindamycin"/>
        <meta>
          <profile value="http://hl7.org/fhir/uv/cpg/StructureDefinition/cpg-medicationrequest"/>
        </meta>
        <text>
          <status value="generated"/><div xmlns="http://www.w3.org/1999/xhtml"><a name="MedicationRequest_clindamycin"> </a><p class="res-header-id"><b>Generated Narrative: MedicationRequest clindamycin</b></p><a name="clindamycin"> </a><a name="hcclindamycin"> </a><a name="clindamycin-en-US"> </a><div style="display: inline-block; background-color: #d9e0e7; padding: 6px; margin: 4px; border: 1px solid #8da1b4; border-radius: 5px; line-height: 60%"><p style="margin-bottom: 0px"/><p style="margin-bottom: 0px">Profile: <a href="http://hl7.org/fhir/uv/cpg/STU2/StructureDefinition-cpg-medicationrequest.html">CPG Medication Request</a></p></div><p><b>status</b>: Active</p><p><b>intent</b>: Proposal</p><p><b>medication</b>: <span title="Codes:">clindamycin, single 3g dose</span></p><p><b>subject</b>: <a href="Patient-patient-a.html"> Female, DoB Unknown</a></p></div>
        </text>
        <status value="active"/>
        <intent value="proposal"/>
        <medicationCodeableConcept>
          <text value="clindamycin, single 3g dose"/>
        </medicationCodeableConcept>
        <subject>
          <reference value="Patient/patient-a"/>
        </subject>
      </MedicationRequest>
    </resource>
  </entry>
  <entry>
    <fullUrl value="urn:uuid:30551ce1-5a28-4356-b684-1e639094ad26"/>
    <resource>
      <MedicationRequest>
        <id value="fluconazol"/>
        <meta>
          <profile value="http://hl7.org/fhir/uv/cpg/StructureDefinition/cpg-medicationrequest"/>
        </meta>
        <text>
          <status value="generated"/><div xmlns="http://www.w3.org/1999/xhtml"><a name="MedicationRequest_fluconazol"> </a><p class="res-header-id"><b>Generated Narrative: MedicationRequest fluconazol</b></p><a name="fluconazol"> </a><a name="hcfluconazol"> </a><a name="fluconazol-en-US"> </a><div style="display: inline-block; background-color: #d9e0e7; padding: 6px; margin: 4px; border: 1px solid #8da1b4; border-radius: 5px; line-height: 60%"><p style="margin-bottom: 0px"/><p style="margin-bottom: 0px">Profile: <a href="http://hl7.org/fhir/uv/cpg/STU2/StructureDefinition-cpg-medicationrequest.html">CPG Medication Request</a></p></div><p><b>status</b>: Active</p><p><b>intent</b>: Proposal</p><p><b>medication</b>: <span title="Codes:">Fluconazol</span></p><p><b>subject</b>: <a href="Patient-patient-a.html"> Female, DoB Unknown</a></p></div>
        </text>
        <status value="active"/>
        <intent value="proposal"/>
        <medicationCodeableConcept>
          <text value="Fluconazol"/>
        </medicationCodeableConcept>
        <subject>
          <reference value="Patient/patient-a"/>
        </subject>
      </MedicationRequest>
    </resource>
  </entry>
  <entry>
    <fullUrl value="urn:uuid:30551ce1-5a28-4356-b684-1e639094ad29"/>
    <resource>
      <MedicationRequest>
        <id value="miconazol"/>
        <meta>
          <profile value="https://www.ehealth.fgov.be/standards/fhir/pss/StructureDefinition/PSSResponseMedicationRequest"/>
          <profile value="http://hl7.org/fhir/uv/cpg/StructureDefinition/cpg-medicationrequest"/>
        </meta>
        <text>
          <status value="generated"/><div xmlns="http://www.w3.org/1999/xhtml"><a name="MedicationRequest_miconazol"> </a><p class="res-header-id"><b>Generated Narrative: MedicationRequest miconazol</b></p><a name="miconazol"> </a><a name="hcmiconazol"> </a><a name="miconazol-en-US"> </a><div style="display: inline-block; background-color: #d9e0e7; padding: 6px; margin: 4px; border: 1px solid #8da1b4; border-radius: 5px; line-height: 60%"><p style="margin-bottom: 0px"/><p style="margin-bottom: 0px">Profiles: <a href="StructureDefinition-PSSResponseMedicationRequest.html">PSS Response Medication Request</a>, <a href="http://hl7.org/fhir/uv/cpg/STU2/StructureDefinition-cpg-medicationrequest.html">CPG Medication Request</a></p></div><p><b>status</b>: Active</p><p><b>intent</b>: Proposal</p><p><b>medication</b>: <span title="Codes:">Miconazol</span></p><p><b>subject</b>: <a href="Patient-patient-a.html"> Female, DoB Unknown</a></p></div>
        </text>
        <status value="active"/>
        <intent value="proposal"/>
        <medicationCodeableConcept>
          <text value="Miconazol"/>
        </medicationCodeableConcept>
        <subject>
          <reference value="Patient/patient-a"/>
        </subject>
      </MedicationRequest>
    </resource>
  </entry>
</Bundle>