{
  "resourceType" : "Bundle",
  "id" : "getrecommendations-a-return",
  "meta" : {
    "profile" : ["https://www.ehealth.fgov.be/standards/fhir/pss/StructureDefinition/PSSResponseBundle"]
  },
  "identifier" : {
    "value" : "response1"
  },
  "type" : "collection",
  "timestamp" : "2025-02-20T00:00:00Z",
  "entry" : [{
    "fullUrl" : "urn:uuid:30551ce1-5a28-4356-b684-1e639094ad21",
    "resource" : {
      "resourceType" : "RequestGroup",
      "id" : "getrecommendations-a-return-group",
      "meta" : {
        "profile" : ["https://www.ehealth.fgov.be/standards/fhir/pss/StructureDefinition/PSSResponseRequestGroup"]
      },
      "text" : {
        "status" : "generated",
        "div" : "<div xmlns=\"http://www.w3.org/1999/xhtml\"><a name=\"RequestGroup_getrecommendations-a-return-group\"> </a><p class=\"res-header-id\"><b>Generated Narrative: RequestGroup getrecommendations-a-return-group</b></p><a name=\"getrecommendations-a-return-group\"> </a><a name=\"hcgetrecommendations-a-return-group\"> </a><a name=\"getrecommendations-a-return-group-en-US\"> </a><div style=\"display: inline-block; background-color: #d9e0e7; padding: 6px; margin: 4px; border: 1px solid #8da1b4; border-radius: 5px; line-height: 60%\"><p style=\"margin-bottom: 0px\"/><p style=\"margin-bottom: 0px\">Profile: <a href=\"StructureDefinition-PSSResponseRequestGroup.html\">PSS Response Request Group</a></p></div><p><b>status</b>: Active</p><p><b>intent</b>: Proposal</p><p><b>subject</b>: <a href=\"Patient-patient-a.html\"> Female, DoB Unknown</a></p><p><b>note</b>: Supporting evidence: [BCFI](https://bcfi.be/nl)</p><blockquote><p><b>action</b></p><p><b>selectionBehavior</b>: At Most One</p><h3>Actions</h3><table class=\"grid\"><tr><td style=\"display: none\">-</td><td><b>Extension</b></td><td><b>TextEquivalent</b></td><td><b>Resource</b></td></tr><tr><td style=\"display: none\">*</td><td> </td><td>Generic Antibiotic advice</td><td><a href=\"CommunicationRequest-ab-advice.html\">CommunicationRequest: status = active</a></td></tr><tr><td style=\"display: none\">*</td><td/><td>Metronidazol Oraal</td><td><a href=\"MedicationRequest-metronidazol.html\">MedicationRequest: status = active; intent = proposal; medication[x] = metronidazole</a></td></tr><tr><td style=\"display: none\">*</td><td/><td>Clindamycin local</td><td><a href=\"MedicationRequest-clindamycin.html\">MedicationRequest: status = active; intent = proposal; medication[x] = </a></td></tr><tr><td style=\"display: none\">*</td><td/><td>Fluconazol Oraal</td><td><a href=\"MedicationRequest-fluconazol.html\">MedicationRequest: status = active; intent = proposal; medication[x] = </a></td></tr><tr><td style=\"display: none\">*</td><td/><td>Miconazol lokaal</td><td><a href=\"MedicationRequest-miconazol.html\">MedicationRequest: status = active; intent = proposal; medication[x] = </a></td></tr></table></blockquote></div>"
      },
      "status" : "active",
      "intent" : "proposal",
      "subject" : {
        "reference" : "Patient/patient-a"
      },
      "note" : [{
        "text" : "Supporting evidence: [BCFI](https://bcfi.be/nl)"
      }],
      "action" : [{
        "selectionBehavior" : "at-most-one",
        "action" : [{
          "textEquivalent" : "Generic Antibiotic advice",
          "resource" : {
            "reference" : "CommunicationRequest/ab-advice"
          }
        },
        {
          "extension" : [{
            "extension" : [{
              "url" : "ratingType",
              "valueCode" : "overall"
            },
            {
              "url" : "ratingValue",
              "valueRatio" : {
                "numerator" : {
                  "value" : 2
                },
                "denominator" : {
                  "value" : 3
                }
              }
            },
            {
              "url" : "ratingText",
              "valueMarkdown" : "Recommended"
            }],
            "url" : "https://www.ehealth.fgov.be/standards/fhir/pss/StructureDefinition/PSSStructuredRating"
          }],
          "textEquivalent" : "Metronidazol Oraal",
          "resource" : {
            "reference" : "MedicationRequest/metronidazol"
          }
        },
        {
          "extension" : [{
            "extension" : [{
              "url" : "ratingType",
              "valueCode" : "overall"
            },
            {
              "url" : "ratingValue",
              "valueRatio" : {
                "numerator" : {
                  "value" : 2
                },
                "denominator" : {
                  "value" : 3
                }
              }
            },
            {
              "url" : "ratingText",
              "valueMarkdown" : "Recommended"
            }],
            "url" : "https://www.ehealth.fgov.be/standards/fhir/pss/StructureDefinition/PSSStructuredRating"
          }],
          "textEquivalent" : "Clindamycin local",
          "resource" : {
            "reference" : "MedicationRequest/clindamycin"
          }
        },
        {
          "extension" : [{
            "extension" : [{
              "url" : "ratingType",
              "valueCode" : "overall"
            },
            {
              "url" : "ratingValue",
              "valueRatio" : {
                "numerator" : {
                  "value" : 2
                },
                "denominator" : {
                  "value" : 3
                }
              }
            },
            {
              "url" : "ratingText",
              "valueMarkdown" : "Recommended"
            }],
            "url" : "https://www.ehealth.fgov.be/standards/fhir/pss/StructureDefinition/PSSStructuredRating"
          }],
          "textEquivalent" : "Fluconazol Oraal",
          "resource" : {
            "reference" : "MedicationRequest/fluconazol"
          }
        },
        {
          "extension" : [{
            "extension" : [{
              "url" : "ratingType",
              "valueCode" : "overall"
            },
            {
              "url" : "ratingValue",
              "valueRatio" : {
                "numerator" : {
                  "value" : 2
                },
                "denominator" : {
                  "value" : 3
                }
              }
            },
            {
              "url" : "ratingText",
              "valueMarkdown" : "Recommended"
            }],
            "url" : "https://www.ehealth.fgov.be/standards/fhir/pss/StructureDefinition/PSSStructuredRating"
          }],
          "textEquivalent" : "Miconazol lokaal",
          "resource" : {
            "reference" : "MedicationRequest/miconazol"
          }
        }]
      }]
    }
  },
  {
    "fullUrl" : "urn:uuid:30551ce1-5a28-4356-b684-1e639094ad22",
    "resource" : {
      "resourceType" : "CommunicationRequest",
      "id" : "ab-advice",
      "meta" : {
        "profile" : ["https://www.ehealth.fgov.be/standards/fhir/pss/StructureDefinition/PSSResponseCommunicationRequest",
        "http://hl7.org/fhir/uv/cpg/StructureDefinition/cpg-communicationrequest"]
      },
      "text" : {
        "status" : "extensions",
        "div" : "<div xmlns=\"http://www.w3.org/1999/xhtml\"><a name=\"CommunicationRequest_ab-advice\"> </a><p class=\"res-header-id\"><b>Generated Narrative: CommunicationRequest ab-advice</b></p><a name=\"ab-advice\"> </a><a name=\"hcab-advice\"> </a><a name=\"ab-advice-en-US\"> </a><div style=\"display: inline-block; background-color: #d9e0e7; padding: 6px; margin: 4px; border: 1px solid #8da1b4; border-radius: 5px; line-height: 60%\"><p style=\"margin-bottom: 0px\"/><p style=\"margin-bottom: 0px\">Profiles: <a href=\"StructureDefinition-PSSResponseCommunicationRequest.html\">PSS Response Communication Request</a>, <a href=\"http://hl7.org/fhir/uv/cpg/STU2/StructureDefinition-cpg-communicationrequest.html\">CPG Communication Request</a></p></div><p><b>status</b>: Active</p><p><b>subject</b>: <a href=\"Patient-patient-a.html\"> Female, DoB Unknown</a></p><h3>Payloads</h3><table class=\"grid\"><tr><td style=\"display: none\">-</td><td><b>Content[x]</b></td></tr><tr><td style=\"display: none\">*</td><td><code>Markdown: </code><div><p>Antibioticum behandeling enkel bij storende klachten of bij verhoogd risico op vroeggeboorte...: <a href=\"https://www.bcfi.be/nl/chapters/12?frag=8000010\">site BCFI</a></p>\n</div></td></tr></table></div>"
      },
      "status" : "active",
      "subject" : {
        "reference" : "Patient/patient-a"
      },
      "payload" : [{
        "_contentString" : {
          "extension" : [{
            "url" : "http://hl7.org/fhir/StructureDefinition/rendering-markdown",
            "valueMarkdown" : "Antibioticum behandeling enkel bij storende klachten of bij verhoogd risico op vroeggeboorte...: [site BCFI](https://www.bcfi.be/nl/chapters/12?frag=8000010)",
            "_valueMarkdown" : {
              "extension" : [{
                "extension" : [{
                  "url" : "lang",
                  "valueCode" : "fr-BE"
                },
                {
                  "url" : "content",
                  "valueString" : "Traitement antibiotique uniquement en cas de symptômes dérangeants ou de risque accru de naissance prématurée: [site BCFI](https://www.bcfi.be/nl/chapters/12?frag=8000010)"
                }],
                "url" : "http://hl7.org/fhir/StructureDefinition/translation"
              }]
            }
          }]
        }
      }]
    }
  },
  {
    "fullUrl" : "urn:uuid:30551ce1-5a28-4356-b684-1e639094ac23",
    "resource" : {
      "resourceType" : "MedicationRequest",
      "id" : "metronidazol",
      "text" : {
        "status" : "generated",
        "div" : "<div xmlns=\"http://www.w3.org/1999/xhtml\"><a name=\"MedicationRequest_metronidazol\"> </a><p class=\"res-header-id\"><b>Generated Narrative: MedicationRequest metronidazol</b></p><a name=\"metronidazol\"> </a><a name=\"hcmetronidazol\"> </a><a name=\"metronidazol-en-US\"> </a><p><b>status</b>: Active</p><p><b>intent</b>: Proposal</p><p><b>medication</b>: <span title=\"Codes:{http://www.whocc.no/atc J01XD01}\">metronidazol</span></p><p><b>subject</b>: <a href=\"Patient-patient-a.html\"> Female, DoB Unknown</a></p><h3>DosageInstructions</h3><table class=\"grid\"><tr><td style=\"display: none\">-</td><td><b>Text</b></td><td><b>Timing</b></td></tr><tr><td style=\"display: none\">*</td><td>Timing = 3 times a day for 7 days. Dosage depends on patient age: If age &lt; 2 years, 375 mg; If age is between 2 and 10 years, 750 mg, if age &gt; 10 years, 1500 mg</td><td>3 per 1 day</td></tr></table></div>"
      },
      "status" : "active",
      "intent" : "proposal",
      "medicationCodeableConcept" : {
        "coding" : [{
          "system" : "http://www.whocc.no/atc",
          "code" : "J01XD01"
        }],
        "text" : "metronidazol"
      },
      "subject" : {
        "reference" : "Patient/patient-a"
      },
      "dosageInstruction" : [{
        "text" : "Timing = 3 times a day for 7 days. Dosage depends on patient age: If age < 2 years, 375 mg; If age is between 2 and 10 years, 750 mg, if age > 10 years, 1500 mg",
        "timing" : {
          "repeat" : {
            "boundsDuration" : {
              "value" : 7,
              "system" : "http://unitsofmeasure.org",
              "code" : "d"
            },
            "frequency" : 3,
            "period" : 1,
            "periodUnit" : "d"
          }
        }
      }]
    }
  },
  {
    "fullUrl" : "urn:uuid:30551ce1-5a28-4356-b684-1e639094ad24",
    "resource" : {
      "resourceType" : "MedicationRequest",
      "id" : "clindamycin",
      "meta" : {
        "profile" : ["http://hl7.org/fhir/uv/cpg/StructureDefinition/cpg-medicationrequest"]
      },
      "text" : {
        "status" : "generated",
        "div" : "<div xmlns=\"http://www.w3.org/1999/xhtml\"><a name=\"MedicationRequest_clindamycin\"> </a><p class=\"res-header-id\"><b>Generated Narrative: MedicationRequest clindamycin</b></p><a name=\"clindamycin\"> </a><a name=\"hcclindamycin\"> </a><a name=\"clindamycin-en-US\"> </a><div style=\"display: inline-block; background-color: #d9e0e7; padding: 6px; margin: 4px; border: 1px solid #8da1b4; border-radius: 5px; line-height: 60%\"><p style=\"margin-bottom: 0px\"/><p style=\"margin-bottom: 0px\">Profile: <a href=\"http://hl7.org/fhir/uv/cpg/STU2/StructureDefinition-cpg-medicationrequest.html\">CPG Medication Request</a></p></div><p><b>status</b>: Active</p><p><b>intent</b>: Proposal</p><p><b>medication</b>: <span title=\"Codes:\">clindamycin, single 3g dose</span></p><p><b>subject</b>: <a href=\"Patient-patient-a.html\"> Female, DoB Unknown</a></p></div>"
      },
      "status" : "active",
      "intent" : "proposal",
      "medicationCodeableConcept" : {
        "text" : "clindamycin, single 3g dose"
      },
      "subject" : {
        "reference" : "Patient/patient-a"
      }
    }
  },
  {
    "fullUrl" : "urn:uuid:30551ce1-5a28-4356-b684-1e639094ad26",
    "resource" : {
      "resourceType" : "MedicationRequest",
      "id" : "fluconazol",
      "meta" : {
        "profile" : ["http://hl7.org/fhir/uv/cpg/StructureDefinition/cpg-medicationrequest"]
      },
      "text" : {
        "status" : "generated",
        "div" : "<div xmlns=\"http://www.w3.org/1999/xhtml\"><a name=\"MedicationRequest_fluconazol\"> </a><p class=\"res-header-id\"><b>Generated Narrative: MedicationRequest fluconazol</b></p><a name=\"fluconazol\"> </a><a name=\"hcfluconazol\"> </a><a name=\"fluconazol-en-US\"> </a><div style=\"display: inline-block; background-color: #d9e0e7; padding: 6px; margin: 4px; border: 1px solid #8da1b4; border-radius: 5px; line-height: 60%\"><p style=\"margin-bottom: 0px\"/><p style=\"margin-bottom: 0px\">Profile: <a href=\"http://hl7.org/fhir/uv/cpg/STU2/StructureDefinition-cpg-medicationrequest.html\">CPG Medication Request</a></p></div><p><b>status</b>: Active</p><p><b>intent</b>: Proposal</p><p><b>medication</b>: <span title=\"Codes:\">Fluconazol</span></p><p><b>subject</b>: <a href=\"Patient-patient-a.html\"> Female, DoB Unknown</a></p></div>"
      },
      "status" : "active",
      "intent" : "proposal",
      "medicationCodeableConcept" : {
        "text" : "Fluconazol"
      },
      "subject" : {
        "reference" : "Patient/patient-a"
      }
    }
  },
  {
    "fullUrl" : "urn:uuid:30551ce1-5a28-4356-b684-1e639094ad29",
    "resource" : {
      "resourceType" : "MedicationRequest",
      "id" : "miconazol",
      "meta" : {
        "profile" : ["https://www.ehealth.fgov.be/standards/fhir/pss/StructureDefinition/PSSResponseMedicationRequest",
        "http://hl7.org/fhir/uv/cpg/StructureDefinition/cpg-medicationrequest"]
      },
      "text" : {
        "status" : "generated",
        "div" : "<div xmlns=\"http://www.w3.org/1999/xhtml\"><a name=\"MedicationRequest_miconazol\"> </a><p class=\"res-header-id\"><b>Generated Narrative: MedicationRequest miconazol</b></p><a name=\"miconazol\"> </a><a name=\"hcmiconazol\"> </a><a name=\"miconazol-en-US\"> </a><div style=\"display: inline-block; background-color: #d9e0e7; padding: 6px; margin: 4px; border: 1px solid #8da1b4; border-radius: 5px; line-height: 60%\"><p style=\"margin-bottom: 0px\"/><p style=\"margin-bottom: 0px\">Profiles: <a href=\"StructureDefinition-PSSResponseMedicationRequest.html\">PSS Response Medication Request</a>, <a href=\"http://hl7.org/fhir/uv/cpg/STU2/StructureDefinition-cpg-medicationrequest.html\">CPG Medication Request</a></p></div><p><b>status</b>: Active</p><p><b>intent</b>: Proposal</p><p><b>medication</b>: <span title=\"Codes:\">Miconazol</span></p><p><b>subject</b>: <a href=\"Patient-patient-a.html\"> Female, DoB Unknown</a></p></div>"
      },
      "status" : "active",
      "intent" : "proposal",
      "medicationCodeableConcept" : {
        "text" : "Miconazol"
      },
      "subject" : {
        "reference" : "Patient/patient-a"
      }
    }
  }]
}